File: rawdata/empty_6
empty
Furnace temperature 	Time	HeatFlow
/°C	/s	/mW
8.08	0	-0.92
8.00	6	-0.92
7.91	12	-0.92
7.79	18	-0.92
7.67	24	-0.91
7.52	30	-0.90
7.34	36	-0.90
7.15	42	-0.89
6.95	48	-0.86
6.74	54	-0.84
6.54	60	-0.80
6.37	66	-0.76
6.21	72	-0.72
6.07	78	-0.68
5.96	84	-0.64
5.86	90	-0.60
5.78	96	-0.57
5.71	102	-0.54
5.66	108	-0.51
5.62	114	-0.48
5.59	120	-0.46
5.57	126	-0.44
5.56	132	-0.42
5.55	138	-0.40
5.55	144	-0.38
5.56	150	-0.36
5.57	156	-0.33
5.59	162	-0.31
5.50	168	-0.29
5.40	174	-0.26
5.32	180	-0.24
5.23	186	-0.21
5.15	192	-0.18
5.09	198	-0.16
5.04	204	-0.13
5.02	210	-0.10
5.01	216	-0.08
5.03	222	-0.05
5.06	228	-0.03
5.09	234	-0.00
5.14	240	0.02
5.19	246	0.04
5.25	252	0.07
5.31	258	0.09
5.38	264	0.11
5.45	270	0.13
5.51	276	0.15
5.58	282	0.16
5.65	288	0.18
5.72	294	0.20
5.79	300	0.21
5.86	306	0.23
5.93	312	0.24
6.00	318	0.25
6.07	324	0.26
6.14	330	0.27
6.21	336	0.28
6.28	342	0.29
6.35	348	0.30
6.42	354	0.30
6.48	360	0.31
6.55	366	0.31
6.62	372	0.32
6.68	378	0.32
6.75	384	0.33
6.81	390	0.33
6.87	396	0.34
6.94	402	0.34
7.00	408	0.34
7.06	414	0.34
7.13	420	0.35
7.19	426	0.35
7.25	432	0.35
7.31	438	0.35
7.37	444	0.35
7.43	450	0.35
7.49	456	0.35
7.55	462	0.35
7.60	468	0.35
7.66	474	0.35
7.72	480	0.35
7.78	486	0.35
7.83	492	0.35
7.89	498	0.35
7.95	504	0.35
8.00	510	0.35
8.06	516	0.35
8.11	522	0.35
8.17	528	0.35
8.22	534	0.35
8.28	540	0.35
8.33	546	0.35
8.39	552	0.35
8.44	558	0.35
8.49	564	0.35
8.55	570	0.35
8.60	576	0.35
8.66	582	0.35
8.71	588	0.35
8.76	594	0.35
8.82	600	0.35
8.87	606	0.35
8.92	612	0.35
8.98	618	0.35
9.03	624	0.35
9.08	630	0.35
9.13	636	0.35
9.19	642	0.35
9.24	648	0.35
9.29	654	0.35
9.34	660	0.35
9.40	666	0.35
9.45	672	0.34
9.50	678	0.34
9.55	684	0.34
9.60	690	0.34
9.66	696	0.34
9.71	702	0.34
9.76	708	0.34
9.81	714	0.34
9.86	720	0.34
9.91	726	0.34
9.97	732	0.34
10.02	738	0.34
10.07	744	0.34
10.12	750	0.34
10.17	756	0.34
10.22	762	0.34
10.27	768	0.34
10.32	774	0.34
10.38	780	0.34
10.43	786	0.34
10.48	792	0.34
10.53	798	0.34
10.58	804	0.34
10.63	810	0.34
10.68	816	0.34
10.73	822	0.34
10.78	828	0.34
10.84	834	0.34
10.89	840	0.34
10.94	846	0.34
10.99	852	0.34
11.04	858	0.34
11.09	864	0.34
11.14	870	0.34
11.19	876	0.34
11.24	882	0.34
11.29	888	0.34
11.34	894	0.34
11.40	900	0.34
11.45	906	0.34
11.50	912	0.34
11.55	918	0.34
11.60	924	0.34
11.65	930	0.34
11.70	936	0.34
11.75	942	0.34
11.80	948	0.34
11.85	954	0.34
11.90	960	0.34
11.95	966	0.34
12.01	972	0.34
12.06	978	0.34
12.11	984	0.34
12.16	990	0.34
12.21	996	0.34
12.26	1002	0.34
12.31	1008	0.34
12.36	1014	0.34
12.41	1020	0.34
12.46	1026	0.34
12.51	1032	0.34
12.56	1038	0.34
12.61	1044	0.34
12.67	1050	0.34
12.72	1056	0.34
12.77	1062	0.34
12.82	1068	0.34
12.87	1074	0.34
12.92	1080	0.34
12.97	1086	0.34
13.02	1092	0.34
13.07	1098	0.34
13.12	1104	0.34
13.17	1110	0.34
13.22	1116	0.34
13.27	1122	0.34
13.33	1128	0.34
13.38	1134	0.34
13.43	1140	0.34
13.48	1146	0.34
13.53	1152	0.34
13.58	1158	0.34
13.63	1164	0.34
13.68	1170	0.33
13.73	1176	0.34
13.78	1182	0.34
13.83	1188	0.34
13.88	1194	0.34
13.93	1200	0.34
13.98	1206	0.34
14.04	1212	0.34
14.09	1218	0.34
14.14	1224	0.34
14.19	1230	0.34
14.24	1236	0.33
14.29	1242	0.34
14.34	1248	0.33
14.39	1254	0.34
14.44	1260	0.33
14.49	1266	0.33
14.54	1272	0.33
14.59	1278	0.33
14.64	1284	0.33
14.69	1290	0.33
14.75	1296	0.33
14.80	1302	0.33
14.85	1308	0.33
14.90	1314	0.33
14.95	1320	0.33
15.00	1326	0.33
15.05	1332	0.33
15.10	1338	0.33
15.15	1344	0.33
15.20	1350	0.33
15.25	1356	0.33
15.30	1362	0.33
15.35	1368	0.33
15.40	1374	0.33
15.45	1380	0.33
15.50	1386	0.33
15.56	1392	0.33
15.61	1398	0.33
15.66	1404	0.33
15.71	1410	0.33
15.76	1416	0.33
15.81	1422	0.33
15.86	1428	0.33
15.91	1434	0.33
15.96	1440	0.33
16.01	1446	0.33
16.06	1452	0.33
16.11	1458	0.33
16.16	1464	0.33
16.21	1470	0.33
16.27	1476	0.33
16.32	1482	0.33
16.36	1488	0.33
16.42	1494	0.33
16.47	1500	0.33
16.52	1506	0.33
16.57	1512	0.33
16.62	1518	0.33
16.67	1524	0.33
16.72	1530	0.33
16.77	1536	0.33
16.82	1542	0.33
16.87	1548	0.33
16.92	1554	0.33
16.97	1560	0.33
17.03	1566	0.33
17.08	1572	0.33
17.13	1578	0.33
17.18	1584	0.33
17.23	1590	0.33
17.28	1596	0.33
17.33	1602	0.33
17.38	1608	0.33
17.43	1614	0.33
17.48	1620	0.33
17.53	1626	0.33
17.58	1632	0.33
17.63	1638	0.33
17.68	1644	0.33
17.73	1650	0.33
17.78	1656	0.33
17.84	1662	0.33
17.89	1668	0.33
17.94	1674	0.33
17.99	1680	0.33
18.04	1686	0.33
18.09	1692	0.33
18.14	1698	0.33
18.19	1704	0.33
18.24	1710	0.33
18.29	1716	0.33
18.34	1722	0.33
18.39	1728	0.33
18.44	1734	0.33
18.49	1740	0.33
18.54	1746	0.33
18.59	1752	0.33
18.65	1758	0.33
18.70	1764	0.33
18.75	1770	0.33
18.80	1776	0.33
18.85	1782	0.33
18.90	1788	0.33
18.95	1794	0.33
19.00	1800	0.33
19.05	1806	0.32
19.10	1812	0.33
19.15	1818	0.33
19.20	1824	0.33
19.25	1830	0.33
19.30	1836	0.32
19.35	1842	0.32
19.40	1848	0.32
19.46	1854	0.32
19.51	1860	0.32
19.56	1866	0.32
19.61	1872	0.32
19.66	1878	0.33
19.71	1884	0.32
19.76	1890	0.32
19.81	1896	0.32
19.86	1902	0.32
19.91	1908	0.32
19.96	1914	0.32
20.01	1920	0.32
20.06	1926	0.32
20.11	1932	0.32
20.16	1938	0.32
20.22	1944	0.32
20.27	1950	0.32
20.32	1956	0.32
20.37	1962	0.32
20.42	1968	0.32
20.47	1974	0.32
20.52	1980	0.32
20.57	1986	0.32
20.62	1992	0.32
20.67	1998	0.32
20.72	2004	0.32
20.77	2010	0.32
20.82	2016	0.32
20.87	2022	0.32
20.92	2028	0.32
20.98	2034	0.32
21.02	2040	0.32
21.08	2046	0.32
21.13	2052	0.32
21.18	2058	0.32
21.23	2064	0.32
21.28	2070	0.32
21.33	2076	0.32
21.38	2082	0.32
21.43	2088	0.32
21.48	2094	0.32
21.53	2100	0.32
21.58	2106	0.32
21.63	2112	0.32
21.68	2118	0.32
21.73	2124	0.32
21.78	2130	0.32
21.84	2136	0.32
21.89	2142	0.32
21.94	2148	0.32
21.99	2154	0.32
22.04	2160	0.32
22.09	2166	0.32
22.14	2172	0.32
22.19	2178	0.32
22.24	2184	0.32
22.29	2190	0.32
22.34	2196	0.32
22.39	2202	0.32
22.44	2208	0.32
22.49	2214	0.32
22.54	2220	0.32
22.60	2226	0.32
22.65	2232	0.32
22.70	2238	0.32
22.75	2244	0.32
22.80	2250	0.31
22.85	2256	0.32
22.90	2262	0.31
22.95	2268	0.32
23.00	2274	0.31
23.05	2280	0.31
23.10	2286	0.31
23.15	2292	0.31
23.20	2298	0.31
23.25	2304	0.31
23.30	2310	0.31
23.36	2316	0.31
23.41	2322	0.31
23.46	2328	0.31
23.51	2334	0.31
23.56	2340	0.31
23.61	2346	0.31
23.66	2352	0.31
23.71	2358	0.31
23.76	2364	0.31
23.81	2370	0.31
23.86	2376	0.31
23.91	2382	0.31
23.96	2388	0.31
24.01	2394	0.31
24.06	2400	0.31
24.11	2406	0.31
24.16	2412	0.31
24.22	2418	0.31
24.27	2424	0.31
24.32	2430	0.31
24.37	2436	0.31
24.42	2442	0.31
24.47	2448	0.31
24.52	2454	0.31
24.57	2460	0.31
24.62	2466	0.31
24.67	2472	0.31
24.72	2478	0.31
24.77	2484	0.31
24.82	2490	0.31
24.87	2496	0.31
24.92	2502	0.31
24.97	2508	0.31
25.03	2514	0.31
25.08	2520	0.31
25.13	2526	0.31
25.18	2532	0.31
25.23	2538	0.31
25.28	2544	0.31
25.33	2550	0.31
25.38	2556	0.31
25.43	2562	0.31
25.48	2568	0.31
25.53	2574	0.31
25.58	2580	0.31
25.63	2586	0.31
25.68	2592	0.31
25.73	2598	0.30
25.79	2604	0.30
25.84	2610	0.30
25.89	2616	0.30
25.94	2622	0.30
25.99	2628	0.30
26.04	2634	0.30
26.09	2640	0.30
26.14	2646	0.30
26.19	2652	0.30
26.24	2658	0.30
26.29	2664	0.30
26.34	2670	0.30
26.39	2676	0.30
26.44	2682	0.30
26.49	2688	0.30
26.54	2694	0.30
26.59	2700	0.30
26.65	2706	0.30
26.70	2712	0.30
26.75	2718	0.30
26.80	2724	0.30
26.85	2730	0.30
26.90	2736	0.30
26.95	2742	0.30
27.00	2748	0.30
27.05	2754	0.30
27.10	2760	0.30
27.15	2766	0.30
27.20	2772	0.30
27.25	2778	0.30
27.30	2784	0.30
27.35	2790	0.30
27.41	2796	0.30
27.46	2802	0.30
27.51	2808	0.30
27.56	2814	0.30
27.61	2820	0.30
27.66	2826	0.30
27.71	2832	0.30
27.76	2838	0.30
27.81	2844	0.30
27.86	2850	0.30
27.91	2856	0.30
27.96	2862	0.30
28.01	2868	0.30
28.06	2874	0.30
28.11	2880	0.30
28.16	2886	0.30
28.21	2892	0.29
28.26	2898	0.30
28.32	2904	0.30
28.37	2910	0.30
28.42	2916	0.29
28.47	2922	0.29
28.52	2928	0.29
28.57	2934	0.29
28.62	2940	0.29
28.67	2946	0.29
28.72	2952	0.29
28.77	2958	0.29
28.82	2964	0.29
28.87	2970	0.29
28.92	2976	0.29
28.97	2982	0.29
29.02	2988	0.29
29.08	2994	0.29
29.13	3000	0.29
29.18	3006	0.29
29.23	3012	0.29
29.28	3018	0.29
29.33	3024	0.29
29.38	3030	0.29
29.43	3036	0.29
29.48	3042	0.29
29.53	3048	0.29
29.58	3054	0.29
29.63	3060	0.29
29.68	3066	0.29
29.73	3072	0.29
29.78	3078	0.29
29.83	3084	0.29
29.88	3090	0.29
29.94	3096	0.29
29.99	3102	0.29
30.04	3108	0.29
30.09	3114	0.29
30.14	3120	0.29
30.19	3126	0.29
30.24	3132	0.29
30.29	3138	0.29
30.34	3144	0.29
30.39	3150	0.29
30.44	3156	0.29
30.49	3162	0.29
30.54	3168	0.29
30.59	3174	0.29
30.64	3180	0.29
30.69	3186	0.29
30.75	3192	0.29
30.80	3198	0.29
30.85	3204	0.29
30.90	3210	0.29
30.95	3216	0.29
31.00	3222	0.29
31.05	3228	0.29
31.10	3234	0.28
31.15	3240	0.29
31.20	3246	0.29
31.25	3252	0.28
31.30	3258	0.28
31.35	3264	0.28
31.40	3270	0.28
31.45	3276	0.28
31.51	3282	0.28
31.56	3288	0.28
31.61	3294	0.28
31.66	3300	0.28
31.71	3306	0.28
31.76	3312	0.28
31.81	3318	0.28
31.86	3324	0.28
31.91	3330	0.28
31.96	3336	0.28
32.01	3342	0.28
32.06	3348	0.28
32.11	3354	0.28
32.16	3360	0.28
32.21	3366	0.28
32.26	3372	0.28
32.31	3378	0.28
32.36	3384	0.28
32.42	3390	0.28
32.47	3396	0.28
32.52	3402	0.28
32.57	3408	0.28
32.62	3414	0.28
32.67	3420	0.28
32.72	3426	0.28
32.77	3432	0.28
32.82	3438	0.28
32.87	3444	0.28
32.92	3450	0.28
32.97	3456	0.28
33.02	3462	0.28
33.07	3468	0.28
33.12	3474	0.28
33.18	3480	0.28
33.23	3486	0.28
33.28	3492	0.28
33.33	3498	0.28
33.38	3504	0.28
33.43	3510	0.28
33.48	3516	0.28
33.53	3522	0.28
33.58	3528	0.28
33.63	3534	0.28
33.68	3540	0.28
33.73	3546	0.28
33.78	3552	0.28
33.83	3558	0.28
33.88	3564	0.28
33.93	3570	0.28
33.98	3576	0.28
34.03	3582	0.28
34.09	3588	0.28
34.14	3594	0.28
34.19	3600	0.28
34.24	3606	0.28
34.29	3612	0.28
34.34	3618	0.27
34.39	3624	0.27
34.44	3630	0.28
34.49	3636	0.28
34.54	3642	0.27
34.59	3648	0.27
34.64	3654	0.27
34.69	3660	0.27
34.74	3666	0.27
34.79	3672	0.27
34.85	3678	0.27
34.90	3684	0.27
34.95	3690	0.27
35.00	3696	0.27
35.05	3702	0.27
35.10	3708	0.27
35.15	3714	0.27
35.20	3720	0.27
35.25	3726	0.27
35.30	3732	0.27
35.35	3738	0.27
35.40	3744	0.27
35.45	3750	0.27
35.50	3756	0.27
35.55	3762	0.27
35.60	3768	0.27
35.65	3774	0.27
35.70	3780	0.27
35.76	3786	0.27
35.81	3792	0.27
35.86	3798	0.27
35.91	3804	0.27
35.96	3810	0.27
36.01	3816	0.27
36.06	3822	0.27
36.11	3828	0.27
36.16	3834	0.27
36.21	3840	0.27
36.26	3846	0.27
36.31	3852	0.27
36.36	3858	0.27
36.41	3864	0.27
36.46	3870	0.27
36.52	3876	0.27
36.57	3882	0.27
36.62	3888	0.27
36.67	3894	0.27
36.72	3900	0.27
36.77	3906	0.27
36.82	3912	0.27
36.87	3918	0.27
36.92	3924	0.27
36.97	3930	0.27
37.02	3936	0.27
37.07	3942	0.27
37.12	3948	0.27
37.17	3954	0.27
37.22	3960	0.27
37.27	3966	0.27
37.32	3972	0.27
37.38	3978	0.27
37.43	3984	0.27
37.48	3990	0.27
37.53	3996	0.27
37.58	4002	0.27
37.63	4008	0.27
37.68	4014	0.26
37.73	4020	0.26
37.78	4026	0.27
37.83	4032	0.27
37.88	4038	0.26
37.93	4044	0.26
37.98	4050	0.27
38.03	4056	0.26
38.08	4062	0.26
38.13	4068	0.26
38.19	4074	0.26
38.24	4080	0.27
38.29	4086	0.26
38.34	4092	0.26
38.39	4098	0.26
38.44	4104	0.26
38.49	4110	0.27
38.54	4116	0.27
38.59	4122	0.27
38.64	4128	0.27
38.69	4134	0.27
38.74	4140	0.27
38.79	4146	0.26
38.84	4152	0.26
38.89	4158	0.26
38.94	4164	0.26
38.99	4170	0.26
39.05	4176	0.26
39.10	4182	0.26
39.15	4188	0.26
39.20	4194	0.26
39.25	4200	0.26
39.30	4206	0.26
39.35	4212	0.26
39.40	4218	0.26
39.45	4224	0.26
39.50	4230	0.26
39.55	4236	0.26
39.60	4242	0.26
39.65	4248	0.26
39.70	4254	0.26
39.76	4260	0.26
39.81	4266	0.26
39.87	4272	0.26
39.92	4278	0.26
39.97	4284	0.26
40.02	4290	0.26
40.07	4296	0.26
40.12	4302	0.26
40.17	4308	0.26
40.22	4314	0.26
40.27	4320	0.26
40.32	4326	0.26
40.37	4332	0.26
40.42	4338	0.26
40.47	4344	0.26
40.52	4350	0.26
40.57	4356	0.26
40.62	4362	0.26
40.67	4368	0.26
40.72	4374	0.26
40.77	4380	0.26
40.82	4386	0.26
40.87	4392	0.26
40.92	4398	0.26
40.97	4404	0.26
41.02	4410	0.26
41.07	4416	0.26
41.12	4422	0.26
41.17	4428	0.26
41.23	4434	0.26
41.28	4440	0.26
41.33	4446	0.26
41.38	4452	0.25
41.43	4458	0.25
41.48	4464	0.25
41.53	4470	0.25
41.58	4476	0.25
41.63	4482	0.25
41.68	4488	0.25
41.73	4494	0.25
41.78	4500	0.25
41.83	4506	0.25
41.88	4512	0.25
41.93	4518	0.25
41.98	4524	0.25
42.03	4530	0.25
42.09	4536	0.25
42.13	4542	0.25
42.19	4548	0.25
42.24	4554	0.25
42.29	4560	0.25
42.34	4566	0.25
42.39	4572	0.25
42.44	4578	0.25
42.49	4584	0.25
42.54	4590	0.25
42.59	4596	0.25
42.64	4602	0.25
42.69	4608	0.25
42.74	4614	0.25
42.79	4620	0.25
42.84	4626	0.25
42.89	4632	0.25
42.94	4638	0.25
42.99	4644	0.25
43.04	4650	0.25
43.10	4656	0.25
43.15	4662	0.25
43.20	4668	0.25
43.25	4674	0.25
43.30	4680	0.25
43.35	4686	0.25
43.40	4692	0.25
43.45	4698	0.25
43.50	4704	0.25
43.55	4710	0.25
43.60	4716	0.25
43.65	4722	0.25
43.70	4728	0.25
43.75	4734	0.25
43.80	4740	0.25
43.85	4746	0.25
43.91	4752	0.25
43.96	4758	0.25
44.01	4764	0.25
44.06	4770	0.25
44.11	4776	0.25
44.16	4782	0.25
44.21	4788	0.25
44.26	4794	0.25
44.31	4800	0.25
44.36	4806	0.25
44.41	4812	0.25
44.46	4818	0.25
44.51	4824	0.25
44.56	4830	0.25
44.61	4836	0.25
44.66	4842	0.25
44.71	4848	0.25
44.76	4854	0.25
44.81	4860	0.25
44.86	4866	0.25
44.91	4872	0.25
44.97	4878	0.25
45.02	4884	0.25
45.07	4890	0.25
45.12	4896	0.25
45.17	4902	0.25
45.22	4908	0.25
45.27	4914	0.25
45.32	4920	0.25
45.37	4926	0.25
45.42	4932	0.25
45.47	4938	0.25
45.53	4944	0.25
45.58	4950	0.25
45.63	4956	0.25
45.68	4962	0.25
45.73	4968	0.25
45.78	4974	0.25
45.83	4980	0.25
45.88	4986	0.25
45.93	4992	0.25
45.98	4998	0.25
46.03	5004	0.25
46.08	5010	0.25
46.13	5016	0.25
46.18	5022	0.25
46.23	5028	0.25
46.28	5034	0.25
46.33	5040	0.25
46.38	5046	0.25
46.43	5052	0.25
46.49	5058	0.25
46.54	5064	0.25
46.59	5070	0.25
46.64	5076	0.25
46.69	5082	0.25
46.74	5088	0.25
46.79	5094	0.25
46.84	5100	0.25
46.89	5106	0.25
46.94	5112	0.25
46.99	5118	0.25
47.04	5124	0.25
47.09	5130	0.25
47.14	5136	0.25
47.19	5142	0.25
47.24	5148	0.25
47.30	5154	0.25
47.35	5160	0.25
47.40	5166	0.25
47.45	5172	0.25
47.50	5178	0.25
47.55	5184	0.25
47.60	5190	0.25
47.65	5196	0.25
47.70	5202	0.25
47.75	5208	0.25
47.80	5214	0.25
47.85	5220	0.25
47.90	5226	0.25
47.95	5232	0.25
48.00	5238	0.25
48.06	5244	0.25
48.11	5250	0.25
48.16	5256	0.25
48.21	5262	0.25
48.26	5268	0.25
48.31	5274	0.25
48.36	5280	0.25
48.41	5286	0.25
48.46	5292	0.25
48.51	5298	0.25
48.56	5304	0.25
48.61	5310	0.25
48.66	5316	0.25
48.71	5322	0.25
48.76	5328	0.25
48.81	5334	0.25
48.86	5340	0.25
48.92	5346	0.25
48.97	5352	0.25
49.02	5358	0.25
49.07	5364	0.25
49.12	5370	0.25
49.17	5376	0.25
49.22	5382	0.25
49.27	5388	0.25
49.32	5394	0.25
49.37	5400	0.25
49.42	5406	0.25
49.47	5412	0.25
49.52	5418	0.25
49.57	5424	0.25
49.62	5430	0.25
49.67	5436	0.25
49.72	5442	0.25
49.78	5448	0.25
49.83	5454	0.25
49.88	5460	0.25
49.93	5466	0.25
49.98	5472	0.25
50.03	5478	0.25
50.08	5484	0.25
50.13	5490	0.25
50.18	5496	0.25
50.23	5502	0.25
50.28	5508	0.25
50.33	5514	0.25
50.38	5520	0.25
50.43	5526	0.25
50.48	5532	0.25
50.53	5538	0.25
50.58	5544	0.25
50.63	5550	0.25
50.68	5556	0.25
50.73	5562	0.25
50.79	5568	0.25
50.83	5574	0.25
50.89	5580	0.25
50.94	5586	0.25
50.99	5592	0.25
51.04	5598	0.25
51.09	5604	0.25
51.14	5610	0.25
51.19	5616	0.25
51.24	5622	0.25
51.29	5628	0.25
51.34	5634	0.25
51.39	5640	0.25
51.44	5646	0.25
51.49	5652	0.25
51.54	5658	0.25
51.59	5664	0.25
51.64	5670	0.25
51.70	5676	0.25
51.75	5682	0.25
51.80	5688	0.25
51.85	5694	0.25
51.90	5700	0.25
51.95	5706	0.25
52.00	5712	0.25
52.05	5718	0.25
52.10	5724	0.25
52.16	5730	0.25
52.21	5736	0.25
52.26	5742	0.25
52.31	5748	0.25
52.36	5754	0.25
52.41	5760	0.25
52.46	5766	0.25
52.51	5772	0.25
52.56	5778	0.25
52.61	5784	0.25
52.66	5790	0.25
52.71	5796	0.25
52.76	5802	0.25
52.81	5808	0.25
52.86	5814	0.25
52.91	5820	0.25
52.96	5826	0.25
53.01	5832	0.25
53.06	5838	0.25
53.11	5844	0.25
53.16	5850	0.25
53.21	5856	0.25
53.26	5862	0.25
53.31	5868	0.25
53.37	5874	0.25
53.42	5880	0.25
53.47	5886	0.25
53.52	5892	0.25
53.57	5898	0.25
53.62	5904	0.25
53.67	5910	0.25
53.72	5916	0.25
53.77	5922	0.25
53.82	5928	0.25
53.87	5934	0.24
53.92	5940	0.25
53.97	5946	0.24
54.02	5952	0.25
54.08	5958	0.25
54.13	5964	0.25
54.18	5970	0.25
54.23	5976	0.25
54.28	5982	0.25
54.33	5988	0.25
54.38	5994	0.25
54.43	6000	0.24
54.48	6006	0.24
54.53	6012	0.25
54.58	6018	0.25
54.63	6024	0.25
54.69	6030	0.25
54.74	6036	0.24
54.79	6042	0.25
54.84	6048	0.25
54.89	6054	0.24
54.94	6060	0.24
54.99	6066	0.24
55.04	6072	0.24
55.09	6078	0.24
55.14	6084	0.24
55.19	6090	0.24
55.24	6096	0.24
55.29	6102	0.24
55.34	6108	0.25
55.39	6114	0.24
55.44	6120	0.24
55.49	6126	0.24
55.55	6132	0.24
55.60	6138	0.24
55.65	6144	0.24
55.69	6150	0.24
55.75	6156	0.24
55.80	6162	0.24
55.85	6168	0.24
55.90	6174	0.24
55.95	6180	0.24
56.00	6186	0.24
56.05	6192	0.24
56.10	6198	0.24
56.15	6204	0.24
56.20	6210	0.24
56.25	6216	0.24
56.30	6222	0.24
56.35	6228	0.24
56.40	6234	0.24
56.45	6240	0.24
56.50	6246	0.24
56.56	6252	0.24
56.61	6258	0.24
56.66	6264	0.24
56.71	6270	0.24
56.76	6276	0.24
56.81	6282	0.24
56.86	6288	0.24
56.91	6294	0.24
56.96	6300	0.24
57.01	6306	0.24
57.06	6312	0.24
57.11	6318	0.24
57.16	6324	0.24
57.21	6330	0.24
57.26	6336	0.24
57.31	6342	0.24
57.37	6348	0.24
57.42	6354	0.24
57.47	6360	0.24
57.52	6366	0.24
57.57	6372	0.24
57.62	6378	0.24
57.67	6384	0.24
57.72	6390	0.24
57.77	6396	0.24
57.82	6402	0.24
57.87	6408	0.24
57.92	6414	0.24
57.97	6420	0.24
58.02	6426	0.24
58.07	6432	0.24
58.12	6438	0.24
58.17	6444	0.24
58.23	6450	0.24
58.28	6456	0.24
58.33	6462	0.24
58.38	6468	0.23
58.43	6474	0.23
58.48	6480	0.24
58.53	6486	0.23
58.58	6492	0.23
58.63	6498	0.23
58.68	6504	0.23
58.73	6510	0.23
58.78	6516	0.23
58.83	6522	0.23
58.88	6528	0.23
58.93	6534	0.23
58.98	6540	0.23
59.03	6546	0.23
59.08	6552	0.23
59.13	6558	0.23
59.18	6564	0.23
59.23	6570	0.23
59.29	6576	0.23
59.34	6582	0.23
59.39	6588	0.23
59.44	6594	0.23
59.49	6600	0.23
59.54	6606	0.23
59.59	6612	0.23
59.64	6618	0.23
59.69	6624	0.23
59.75	6630	0.23
59.79	6636	0.23
59.85	6642	0.23
59.90	6648	0.23
59.95	6654	0.23
60.00	6660	0.23
60.05	6666	0.23
60.10	6672	0.23
60.15	6678	0.23
60.20	6684	0.23
60.25	6690	0.23
60.30	6696	0.23
60.35	6702	0.23
60.40	6708	0.23
60.45	6714	0.23
60.50	6720	0.23
60.55	6726	0.23
60.60	6732	0.23
60.65	6738	0.23
60.71	6744	0.23
60.76	6750	0.23
60.81	6756	0.23
60.86	6762	0.23
60.91	6768	0.23
60.96	6774	0.22
61.01	6780	0.22
61.06	6786	0.23
61.11	6792	0.22
61.16	6798	0.23
61.21	6804	0.22
61.26	6810	0.22
61.31	6816	0.22
61.36	6822	0.22
61.41	6828	0.22
61.46	6834	0.22
61.51	6840	0.22
61.56	6846	0.22
61.62	6852	0.22
61.67	6858	0.22
61.72	6864	0.22
61.77	6870	0.22
61.82	6876	0.22
61.87	6882	0.22
61.92	6888	0.22
61.97	6894	0.23
62.02	6900	0.22
62.07	6906	0.22
62.12	6912	0.22
62.17	6918	0.22
62.22	6924	0.22
62.27	6930	0.22
62.32	6936	0.22
62.37	6942	0.22
62.42	6948	0.22
62.48	6954	0.22
62.53	6960	0.22
62.58	6966	0.22
62.63	6972	0.22
62.68	6978	0.22
62.73	6984	0.22
62.78	6990	0.22
62.83	6996	0.22
62.88	7002	0.22
62.93	7008	0.22
62.98	7014	0.22
63.03	7020	0.22
63.08	7026	0.22
63.13	7032	0.22
63.18	7038	0.22
63.24	7044	0.22
63.29	7050	0.22
63.34	7056	0.22
63.39	7062	0.22
63.44	7068	0.22
63.49	7074	0.22
63.54	7080	0.22
63.59	7086	0.21
63.64	7092	0.22
63.69	7098	0.22
63.74	7104	0.22
63.79	7110	0.21
63.84	7116	0.22
63.89	7122	0.22
63.94	7128	0.22
64.00	7134	0.22
64.05	7140	0.22
64.10	7146	0.22
64.15	7152	0.22
64.20	7158	0.22
64.25	7164	0.22
64.30	7170	0.22
64.35	7176	0.22
64.40	7182	0.22
64.45	7188	0.21
64.50	7194	0.22
64.55	7200	0.22