File: rawdata/empty_7
empty
Furnace temperature 	Time	HeatFlow
/°C	/s	/mW
64.91	0	0.22
65.07	2	0.22
65.39	4	0.22
65.82	6	0.21
66.34	8	0.21
66.83	11	0.20
67.26	13	0.19
67.58	15	0.17
67.79	17	0.15
67.89	19	0.13
67.93	21	0.10
67.92	23	0.08
67.90	25	0.06
67.88	27	0.04
67.87	29	0.02
67.87	32	0.00
67.87	34	-0.01
67.87	36	-0.03
67.87	38	-0.04
67.87	40	-0.05
67.86	42	-0.06
67.84	44	-0.07
67.82	46	-0.08
67.80	48	-0.08
67.78	50	-0.09
67.75	53	-0.09
67.73	55	-0.09
67.71	57	-0.10
67.68	59	-0.10
67.65	61	-0.10
67.63	63	-0.10
67.60	65	-0.10
67.57	67	-0.10
67.54	69	-0.10
67.51	71	-0.09
67.48	74	-0.09
67.45	76	-0.09
67.42	78	-0.09
67.38	80	-0.09
67.35	82	-0.09
67.32	84	-0.08
67.29	86	-0.08
67.25	88	-0.08
67.22	90	-0.07
67.18	92	-0.07
67.15	95	-0.07
67.11	97	-0.07
67.07	99	-0.07
67.04	101	-0.07
67.00	103	-0.07
66.97	105	-0.07
66.93	107	-0.07
66.89	109	-0.06
66.85	111	-0.06
66.82	113	-0.07
66.78	116	-0.07
66.74	118	-0.07
66.70	120	-0.07
66.66	122	-0.07
66.63	124	-0.07
66.59	126	-0.07
66.55	128	-0.08
66.51	130	-0.08
66.47	132	-0.08
66.43	134	-0.09
66.39	137	-0.09
66.35	139	-0.09
66.31	141	-0.10
66.27	143	-0.10
66.23	145	-0.10
66.19	147	-0.11
66.15	149	-0.11
66.11	151	-0.12
66.07	153	-0.13
66.03	155	-0.13
65.99	158	-0.14
65.95	160	-0.14
65.91	162	-0.15
65.90	164	-0.15
65.91	166	-0.16
65.90	168	-0.17
65.88	170	-0.17
65.84	172	-0.18
65.80	174	-0.18
65.74	176	-0.19
65.69	179	-0.19
65.65	181	-0.20
65.60	183	-0.21
65.57	185	-0.21
65.54	187	-0.22
65.50	189	-0.22
65.47	191	-0.23
65.43	193	-0.24
65.39	195	-0.24
65.35	197	-0.25
65.31	200	-0.25
65.27	202	-0.26
65.22	204	-0.27
65.18	206	-0.27
65.14	208	-0.28
65.10	210	-0.29
65.06	212	-0.29
65.02	214	-0.29
64.98	216	-0.30
64.94	218	-0.31
64.89	221	-0.31
64.85	223	-0.32
64.81	225	-0.33
64.77	227	-0.33
64.72	229	-0.34
64.68	231	-0.34
64.64	233	-0.35
64.60	235	-0.35
64.55	237	-0.36
64.51	239	-0.36
64.47	242	-0.37
64.43	244	-0.37
64.38	246	-0.38
64.34	248	-0.38
64.30	250	-0.39
64.25	252	-0.39
64.21	254	-0.40
64.17	256	-0.41
64.12	258	-0.41
64.08	260	-0.42
64.04	263	-0.42
63.99	265	-0.43
63.95	267	-0.43
63.91	269	-0.43
63.86	271	-0.44
63.82	273	-0.44
63.78	275	-0.45
63.73	277	-0.45
63.69	279	-0.46
63.64	281	-0.46
63.60	284	-0.47
63.56	286	-0.47
63.51	288	-0.47
63.47	290	-0.48
63.43	292	-0.48
63.38	294	-0.48
63.34	296	-0.49
63.30	298	-0.49
63.25	300	-0.50
63.21	302	-0.50
63.16	305	-0.51
63.12	307	-0.51
63.08	309	-0.51
63.03	311	-0.52
62.99	313	-0.52
62.95	315	-0.52
62.90	317	-0.53
62.86	319	-0.53
62.81	321	-0.53
62.77	323	-0.54
62.73	326	-0.54
62.68	328	-0.55
62.64	330	-0.55
62.60	332	-0.56
62.55	334	-0.56
62.51	336	-0.56
62.47	338	-0.56
62.42	340	-0.57
62.38	342	-0.57
62.33	344	-0.57
62.29	347	-0.57
62.25	349	-0.58
62.20	351	-0.58
62.16	353	-0.58
62.12	355	-0.59
62.07	357	-0.59
62.03	359	-0.59
61.99	361	-0.59
61.94	363	-0.59
61.90	365	-0.59
61.85	368	-0.60
61.81	370	-0.60
61.77	372	-0.60
61.72	374	-0.60
61.68	376	-0.61
61.64	378	-0.61
61.59	380	-0.61
61.55	382	-0.61
61.51	384	-0.62
61.46	386	-0.62
61.42	389	-0.62
61.38	391	-0.62
61.33	393	-0.62
61.29	395	-0.63
61.25	397	-0.63
61.20	399	-0.63
61.16	401	-0.63
61.12	403	-0.63
61.07	405	-0.63
61.03	407	-0.64
60.99	410	-0.64
60.94	412	-0.64
60.90	414	-0.64
60.86	416	-0.64
60.81	418	-0.64
60.77	420	-0.64
60.73	422	-0.64
60.68	424	-0.64
60.64	426	-0.65
60.60	428	-0.65
60.55	431	-0.65
60.51	433	-0.65
60.47	435	-0.65
60.42	437	-0.65
60.38	439	-0.65
60.34	441	-0.65
60.29	443	-0.66
60.25	445	-0.65
60.21	447	-0.66
60.16	449	-0.66
60.12	452	-0.66
60.08	454	-0.66
60.04	456	-0.66
59.99	458	-0.66
59.95	460	-0.66
59.90	462	-0.66
59.86	464	-0.66
59.82	466	-0.66
59.78	468	-0.67
59.73	470	-0.66
59.69	473	-0.67
59.65	475	-0.67
59.60	477	-0.67
59.56	479	-0.67
59.52	481	-0.67
59.47	483	-0.67
59.43	485	-0.67
59.39	487	-0.67
59.35	489	-0.67
59.30	491	-0.67
59.26	494	-0.67
59.22	496	-0.67
59.17	498	-0.67
59.13	500	-0.67
59.09	502	-0.67
59.05	504	-0.67
59.00	506	-0.67
58.96	508	-0.67
58.92	510	-0.67
58.87	512	-0.67
58.83	515	-0.67
58.79	517	-0.67
58.74	519	-0.68
58.70	521	-0.68
58.66	523	-0.67
58.62	525	-0.67
58.57	527	-0.67
58.53	529	-0.67
58.49	531	-0.67
58.44	533	-0.67
58.40	536	-0.67
58.36	538	-0.67
58.32	540	-0.67
58.27	542	-0.68
58.23	544	-0.68
58.19	546	-0.68
58.14	548	-0.68
58.10	550	-0.68
58.06	552	-0.68
58.02	554	-0.68
57.97	557	-0.68
57.93	559	-0.67
57.89	561	-0.67
57.84	563	-0.67
57.80	565	-0.67
57.76	567	-0.67
57.72	569	-0.67
57.67	571	-0.67
57.63	573	-0.67
57.59	575	-0.68
57.55	578	-0.68
57.50	580	-0.68
57.46	582	-0.68
57.42	584	-0.68
57.37	586	-0.68
57.33	588	-0.68
57.29	590	-0.68
57.25	592	-0.68
57.20	594	-0.68
57.16	596	-0.68
57.12	599	-0.68
57.07	601	-0.68
57.03	603	-0.68
56.99	605	-0.68
56.95	607	-0.68
56.90	609	-0.68
56.86	611	-0.68
56.82	613	-0.68
56.78	615	-0.68
56.73	617	-0.68
56.69	620	-0.68
56.65	622	-0.68
56.60	624	-0.68
56.56	626	-0.68
56.52	628	-0.68
56.48	630	-0.68
56.43	632	-0.68
56.39	634	-0.68
56.35	636	-0.68
56.31	638	-0.68
56.26	641	-0.68
56.22	643	-0.68
56.18	645	-0.68
56.13	647	-0.68
56.09	649	-0.68
56.05	651	-0.68
56.01	653	-0.68
55.96	655	-0.68
55.92	657	-0.68
55.88	659	-0.68
55.84	662	-0.68
55.79	664	-0.68
55.75	666	-0.68
55.71	668	-0.68
55.67	670	-0.68
55.62	672	-0.68
55.58	674	-0.68
55.54	676	-0.68
55.50	678	-0.69
55.45	680	-0.69
55.41	683	-0.68
55.37	685	-0.68
55.32	687	-0.68
55.28	689	-0.68
55.24	691	-0.68
55.20	693	-0.68
55.15	695	-0.68
55.11	697	-0.68
55.07	699	-0.68
55.03	701	-0.69
54.98	704	-0.69
54.94	706	-0.68
54.90	708	-0.68
54.86	710	-0.68
54.81	712	-0.68
54.77	714	-0.68
54.73	716	-0.68
54.69	718	-0.68
54.64	720	-0.69
54.60	722	-0.68
54.56	725	-0.69
54.52	727	-0.69
54.47	729	-0.69
54.43	731	-0.69
54.39	733	-0.69
54.34	735	-0.69
54.30	737	-0.68
54.26	739	-0.68
54.22	741	-0.69
54.17	743	-0.69
54.13	746	-0.69
54.09	748	-0.69
54.05	750	-0.69
54.00	752	-0.69
53.96	754	-0.69
53.92	756	-0.69
53.88	758	-0.68
53.83	760	-0.68
53.79	762	-0.68
53.75	764	-0.68
53.71	767	-0.69
53.66	769	-0.69
53.62	771	-0.69
53.58	773	-0.69
53.53	775	-0.69
53.49	777	-0.69
53.45	779	-0.69
53.41	781	-0.69
53.37	783	-0.69
53.32	785	-0.69
53.28	788	-0.69
53.24	790	-0.69
53.20	792	-0.69
53.15	794	-0.69
53.11	796	-0.69
53.07	798	-0.69
53.02	800	-0.69
52.98	802	-0.69
52.94	804	-0.69
52.90	806	-0.69
52.86	809	-0.69
52.81	811	-0.69
52.77	813	-0.69
52.73	815	-0.69
52.68	817	-0.69
52.64	819	-0.69
52.60	821	-0.69
52.56	823	-0.69
52.51	825	-0.70
52.47	827	-0.70
52.43	830	-0.70
52.39	832	-0.70
52.34	834	-0.69
52.30	836	-0.69
52.26	838	-0.69
52.22	840	-0.70
52.17	842	-0.69
52.13	844	-0.69
52.09	846	-0.69
52.05	848	-0.69
52.00	851	-0.69
51.96	853	-0.69
51.92	855	-0.69
51.88	857	-0.69
51.83	859	-0.69
51.79	861	-0.69
51.75	863	-0.70
51.71	865	-0.69
51.66	867	-0.70
51.62	869	-0.70
51.58	872	-0.70
51.54	874	-0.70
51.49	876	-0.70
51.45	878	-0.70
51.41	880	-0.70
51.37	882	-0.70
51.32	884	-0.69
51.28	886	-0.70
51.24	888	-0.70
51.20	890	-0.70
51.15	893	-0.70
51.11	895	-0.70
51.07	897	-0.70
51.03	899	-0.70
50.98	901	-0.70
50.94	903	-0.70
50.90	905	-0.70
50.86	907	-0.70
50.81	909	-0.70
50.77	911	-0.70
50.73	914	-0.70
50.69	916	-0.70
50.64	918	-0.70
50.60	920	-0.70
50.56	922	-0.70
50.52	924	-0.70
50.47	926	-0.70
50.43	928	-0.70
50.39	930	-0.70
50.34	932	-0.70
50.30	935	-0.70
50.26	937	-0.70
50.22	939	-0.70
50.18	941	-0.70
50.13	943	-0.71
50.09	945	-0.71
50.05	947	-0.70
50.01	949	-0.70
49.96	951	-0.70
49.92	953	-0.70
49.88	956	-0.71
49.83	958	-0.71
49.79	960	-0.71
49.75	962	-0.71
49.71	964	-0.71
49.66	966	-0.71
49.62	968	-0.71
49.58	970	-0.71
49.54	972	-0.71
49.49	974	-0.71
49.45	977	-0.71
49.41	979	-0.71
49.37	981	-0.71
49.32	983	-0.71
49.28	985	-0.71
49.24	987	-0.71
49.20	989	-0.71
49.15	991	-0.71
49.11	993	-0.71
49.07	995	-0.71
49.03	998	-0.71
48.98	1000	-0.71
48.94	1002	-0.71
48.90	1004	-0.71
48.86	1006	-0.71
48.81	1008	-0.71
48.77	1010	-0.71
48.73	1012	-0.71
48.69	1014	-0.71
48.64	1016	-0.71
48.60	1019	-0.71
48.56	1021	-0.71
48.52	1023	-0.71
48.47	1025	-0.72
48.43	1027	-0.72
48.39	1029	-0.72
48.35	1031	-0.72
48.30	1033	-0.72
48.26	1035	-0.72
48.22	1037	-0.72
48.18	1040	-0.72
48.13	1042	-0.72
48.09	1044	-0.72
48.05	1046	-0.72
48.01	1048	-0.72
47.96	1050	-0.72
47.92	1052	-0.72
47.88	1054	-0.72
47.84	1056	-0.72
47.79	1058	-0.72
47.75	1061	-0.72
47.71	1063	-0.72
47.67	1065	-0.72
47.62	1067	-0.72
47.58	1069	-0.72
47.54	1071	-0.72
47.50	1073	-0.72
47.45	1075	-0.72
47.41	1077	-0.72
47.37	1079	-0.72
47.33	1082	-0.72
47.28	1084	-0.72
47.24	1086	-0.72
47.20	1088	-0.73
47.15	1090	-0.73
47.11	1092	-0.73
47.07	1094	-0.73
47.03	1096	-0.72
46.99	1098	-0.73
46.94	1100	-0.73
46.90	1103	-0.73
46.86	1105	-0.73
46.82	1107	-0.73
46.77	1109	-0.73
46.73	1111	-0.73
46.69	1113	-0.73
46.65	1115	-0.73
46.60	1117	-0.73
46.56	1119	-0.73
46.52	1121	-0.73
46.47	1124	-0.73
46.43	1126	-0.73
46.39	1128	-0.73
46.35	1130	-0.73
46.31	1132	-0.73
46.26	1134	-0.73
46.22	1136	-0.73
46.18	1138	-0.73
46.14	1140	-0.73
46.09	1142	-0.73
46.05	1145	-0.73
46.01	1147	-0.73
45.96	1149	-0.73
45.92	1151	-0.73
45.88	1153	-0.73
45.84	1155	-0.73
45.80	1157	-0.73
45.75	1159	-0.74
45.71	1161	-0.74
45.67	1163	-0.74
45.63	1166	-0.74
45.58	1168	-0.74
45.54	1170	-0.74
45.50	1172	-0.74
45.45	1174	-0.74
45.41	1176	-0.74
45.37	1178	-0.74
45.33	1180	-0.74
45.29	1182	-0.74
45.24	1184	-0.74
45.20	1187	-0.74
45.16	1189	-0.74
45.11	1191	-0.74
45.07	1193	-0.74
45.03	1195	-0.74
44.99	1197	-0.74
44.94	1199	-0.74
44.90	1201	-0.74
44.86	1203	-0.74
44.82	1205	-0.74
44.78	1208	-0.74
44.73	1210	-0.75
44.69	1212	-0.75
44.65	1214	-0.75
44.60	1216	-0.75
44.56	1218	-0.74
44.52	1220	-0.74
44.48	1222	-0.74
44.43	1224	-0.74
44.39	1226	-0.75
44.35	1229	-0.75
44.31	1231	-0.75
44.26	1233	-0.75
44.22	1235	-0.75
44.18	1237	-0.75
44.14	1239	-0.75
44.10	1241	-0.75
44.05	1243	-0.75
44.01	1245	-0.75
43.97	1247	-0.75
43.92	1250	-0.75
43.88	1252	-0.75
43.84	1254	-0.75
43.80	1256	-0.75
43.75	1258	-0.75
43.71	1260	-0.75
43.67	1262	-0.75
43.63	1264	-0.75
43.59	1266	-0.75
43.54	1268	-0.75
43.50	1271	-0.75
43.46	1273	-0.75
43.41	1275	-0.75
43.37	1277	-0.75
43.33	1279	-0.75
43.29	1281	-0.75
43.24	1283	-0.76
43.20	1285	-0.76
43.16	1287	-0.75
43.12	1289	-0.75
43.07	1292	-0.76
43.03	1294	-0.76
42.99	1296	-0.76
42.95	1298	-0.76
42.91	1300	-0.76
42.86	1302	-0.76
42.82	1304	-0.76
42.78	1306	-0.76
42.73	1308	-0.76
42.69	1310	-0.76
42.65	1313	-0.76
42.61	1315	-0.76
42.56	1317	-0.76
42.52	1319	-0.76
42.48	1321	-0.76
42.44	1323	-0.76
42.39	1325	-0.76
42.35	1327	-0.76
42.31	1329	-0.76
42.27	1331	-0.76
42.22	1334	-0.76
42.18	1336	-0.76
42.14	1338	-0.76
42.10	1340	-0.77
42.06	1342	-0.76
42.01	1344	-0.76
41.97	1346	-0.76
41.93	1348	-0.77
41.89	1350	-0.77
41.84	1352	-0.77
41.80	1355	-0.77
41.76	1357	-0.77
41.72	1359	-0.77
41.67	1361	-0.77
41.63	1363	-0.77
41.59	1365	-0.77
41.54	1367	-0.77
41.50	1369	-0.77
41.46	1371	-0.77
41.42	1373	-0.77
41.38	1376	-0.77
41.33	1378	-0.77
41.29	1380	-0.77
41.25	1382	-0.77
41.20	1384	-0.77
41.16	1386	-0.77
41.12	1388	-0.77
41.08	1390	-0.77
41.03	1392	-0.77
40.99	1394	-0.77
40.95	1397	-0.77
40.91	1399	-0.77
40.87	1401	-0.77
40.82	1403	-0.77
40.78	1405	-0.78
40.74	1407	-0.78
40.69	1409	-0.78
40.65	1411	-0.78
40.61	1413	-0.78
40.57	1415	-0.78
40.53	1418	-0.78
40.48	1420	-0.78
40.44	1422	-0.78
40.40	1424	-0.78
40.36	1426	-0.78
40.31	1428	-0.78
40.27	1430	-0.78
40.23	1432	-0.78
40.19	1434	-0.78
40.14	1436	-0.78
40.10	1439	-0.78
40.06	1441	-0.78
40.02	1443	-0.78
39.97	1445	-0.78
39.93	1447	-0.78
39.89	1449	-0.78
39.85	1451	-0.78
39.80	1453	-0.78
39.76	1455	-0.78
39.72	1457	-0.78
39.68	1460	-0.78
39.63	1462	-0.79
39.59	1464	-0.78
39.55	1466	-0.78
39.50	1468	-0.79
39.46	1470	-0.79
39.42	1472	-0.79
39.38	1474	-0.79
39.34	1476	-0.79
39.29	1478	-0.79
39.25	1481	-0.79
39.21	1483	-0.79
39.16	1485	-0.79
39.12	1487	-0.79
39.08	1489	-0.79
39.04	1491	-0.79
39.00	1493	-0.79
38.95	1495	-0.79
38.91	1497	-0.79
38.87	1499	-0.79
38.83	1502	-0.79
38.78	1504	-0.79
38.74	1506	-0.79
38.70	1508	-0.79
38.66	1510	-0.79
38.61	1512	-0.79
38.57	1514	-0.79
38.53	1516	-0.79
38.49	1518	-0.79
38.44	1520	-0.79
38.40	1523	-0.79
38.36	1525	-0.79
38.32	1527	-0.79
38.27	1529	-0.79
38.23	1531	-0.79
38.19	1533	-0.79
38.15	1535	-0.79
38.10	1537	-0.79
38.06	1539	-0.80
38.02	1541	-0.80
37.98	1544	-0.80
37.93	1546	-0.80
37.89	1548	-0.80
37.85	1550	-0.80
37.81	1552	-0.80
37.76	1554	-0.80
37.72	1556	-0.80
37.68	1558	-0.80
37.64	1560	-0.80
37.59	1562	-0.80
37.55	1565	-0.80
37.51	1567	-0.80
37.47	1569	-0.80
37.42	1571	-0.80
37.38	1573	-0.80
37.34	1575	-0.80
37.30	1577	-0.80
37.25	1579	-0.80
37.21	1581	-0.80
37.17	1583	-0.80
37.13	1586	-0.80
37.08	1588	-0.80
37.04	1590	-0.81
37.00	1592	-0.80
36.96	1594	-0.80
36.91	1596	-0.81
36.87	1598	-0.81
36.83	1600	-0.81
36.79	1602	-0.81
36.74	1604	-0.81
36.70	1607	-0.81
36.66	1609	-0.81
36.62	1611	-0.81
36.57	1613	-0.81
36.53	1615	-0.81
36.49	1617	-0.81
36.45	1619	-0.81
36.40	1621	-0.81
36.36	1623	-0.81
36.32	1625	-0.81
36.28	1628	-0.81
36.23	1630	-0.81
36.19	1632	-0.81
36.15	1634	-0.81
36.11	1636	-0.81
36.06	1638	-0.81
36.02	1640	-0.81
35.98	1642	-0.81
35.94	1644	-0.81
35.89	1646	-0.82
35.85	1649	-0.81
35.81	1651	-0.81
35.77	1653	-0.81
35.72	1655	-0.82
35.68	1657	-0.82
35.64	1659	-0.82
35.60	1661	-0.82
35.55	1663	-0.82
35.51	1665	-0.82
35.47	1667	-0.82
35.43	1670	-0.82
35.38	1672	-0.82
35.34	1674	-0.82
35.30	1676	-0.82
35.26	1678	-0.82
35.21	1680	-0.82
35.17	1682	-0.82
35.13	1684	-0.82
35.09	1686	-0.82
35.04	1688	-0.82
35.00	1691	-0.82
34.96	1693	-0.82
34.92	1695	-0.82
34.87	1697	-0.82
34.83	1699	-0.82
34.79	1701	-0.82
34.75	1703	-0.82
34.70	1705	-0.82
34.66	1707	-0.82
34.62	1709	-0.82
34.58	1712	-0.82
34.54	1714	-0.82
34.49	1716	-0.82
34.45	1718	-0.82
34.41	1720	-0.82
34.36	1722	-0.83
34.32	1724	-0.83
34.28	1726	-0.83
34.24	1728	-0.83
34.19	1730	-0.83
34.15	1733	-0.83
34.11	1735	-0.83
34.07	1737	-0.83
34.02	1739	-0.83
33.98	1741	-0.83
33.94	1743	-0.83
33.90	1745	-0.83
33.85	1747	-0.83
33.81	1749	-0.83
33.77	1751	-0.83
33.73	1754	-0.83
33.69	1756	-0.83
33.64	1758	-0.83
33.60	1760	-0.83
33.56	1762	-0.83
33.51	1764	-0.83
33.47	1766	-0.83
33.43	1768	-0.83
33.39	1770	-0.83
33.34	1772	-0.83
33.30	1775	-0.83
33.26	1777	-0.83
33.22	1779	-0.83
33.18	1781	-0.84
33.13	1783	-0.84
33.09	1785	-0.84
33.05	1787	-0.84
33.01	1789	-0.84
32.96	1791	-0.84
32.92	1793	-0.84
32.88	1796	-0.84
32.84	1798	-0.84
32.79	1800	-0.84
32.75	1802	-0.84
32.71	1804	-0.84
32.66	1806	-0.84
32.62	1808	-0.84
32.58	1810	-0.84
32.54	1812	-0.84
32.50	1814	-0.84
32.45	1817	-0.84
32.41	1819	-0.84
32.37	1821	-0.84
32.33	1823	-0.84
32.28	1825	-0.84
32.24	1827	-0.84
32.20	1829	-0.84
32.16	1831	-0.84
32.11	1833	-0.85
32.07	1835	-0.85
32.03	1838	-0.84
31.99	1840	-0.84
31.94	1842	-0.84
31.90	1844	-0.84
31.86	1846	-0.84
31.82	1848	-0.85
31.77	1850	-0.85
31.73	1852	-0.85
31.69	1854	-0.85
31.65	1856	-0.85
31.60	1859	-0.85
31.56	1861	-0.85
31.52	1863	-0.85
31.48	1865	-0.85
31.43	1867	-0.85
31.39	1869	-0.85
31.35	1871	-0.85
31.31	1873	-0.85
31.26	1875	-0.85
31.22	1877	-0.85
31.18	1880	-0.85
31.14	1882	-0.85
31.10	1884	-0.85
31.05	1886	-0.85
31.01	1888	-0.85
30.97	1890	-0.85
30.92	1892	-0.85
30.88	1894	-0.85
30.84	1896	-0.85
30.79	1898	-0.85
30.75	1901	-0.85
30.71	1903	-0.85
30.67	1905	-0.85
30.62	1907	-0.85
30.58	1909	-0.85
30.54	1911	-0.85
30.50	1913	-0.85
30.46	1915	-0.85
30.42	1917	-0.85
30.37	1919	-0.85
30.33	1922	-0.85
30.29	1924	-0.86
30.24	1926	-0.86
30.20	1928	-0.86
30.16	1930	-0.85
30.12	1932	-0.85
30.07	1934	-0.86
30.03	1936	-0.86
29.99	1938	-0.86
29.94	1940	-0.86
29.90	1943	-0.86
29.86	1945	-0.86
29.81	1947	-0.86
29.77	1949	-0.86
29.73	1951	-0.86
29.69	1953	-0.86
29.64	1955	-0.86
29.60	1957	-0.86
29.56	1959	-0.86
29.52	1961	-0.86
29.47	1964	-0.86
29.43	1966	-0.86
29.39	1968	-0.86
29.35	1970	-0.86
29.30	1972	-0.86
29.26	1974	-0.86
29.22	1976	-0.86
29.18	1978	-0.86
29.13	1980	-0.86
29.09	1982	-0.86
29.05	1985	-0.86
29.01	1987	-0.86
28.96	1989	-0.86
28.92	1991	-0.86
28.88	1993	-0.86
28.84	1995	-0.86
28.79	1997	-0.86
28.75	1999	-0.86
28.71	2001	-0.86
28.67	2003	-0.86
28.63	2006	-0.86
28.58	2008	-0.87
28.54	2010	-0.87
28.50	2012	-0.87
28.46	2014	-0.87
28.41	2016	-0.87
28.37	2018	-0.86
28.33	2020	-0.87
28.29	2022	-0.87
28.24	2024	-0.87
28.20	2027	-0.87
28.16	2029	-0.87
28.12	2031	-0.87
28.08	2033	-0.87
28.03	2035	-0.87
27.99	2037	-0.87
27.95	2039	-0.87
27.91	2041	-0.87
27.86	2043	-0.87
27.82	2045	-0.87
27.78	2048	-0.87
27.74	2050	-0.87
27.69	2052	-0.87
27.65	2054	-0.87
27.61	2056	-0.87
27.57	2058	-0.87
27.52	2060	-0.87
27.48	2062	-0.87
27.44	2064	-0.87
27.40	2066	-0.87
27.35	2069	-0.87
27.31	2071	-0.87
27.27	2073	-0.87
27.23	2075	-0.87
27.18	2077	-0.87
27.14	2079	-0.87
27.10	2081	-0.87
27.06	2083	-0.87
27.01	2085	-0.87
26.97	2087	-0.87
26.93	2090	-0.87
26.89	2092	-0.87
26.85	2094	-0.87
26.80	2096	-0.87
26.76	2098	-0.87
26.72	2100	-0.87
26.67	2102	-0.87
26.63	2104	-0.87
26.59	2106	-0.87
26.55	2108	-0.87
26.50	2111	-0.88
26.46	2113	-0.88
26.42	2115	-0.88
26.38	2117	-0.88
26.33	2119	-0.88
26.29	2121	-0.88
26.25	2123	-0.88
26.21	2125	-0.88
26.17	2127	-0.88
26.12	2129	-0.88
26.08	2132	-0.88
26.04	2134	-0.88
25.99	2136	-0.88
25.95	2138	-0.88
25.91	2140	-0.88
25.87	2142	-0.88
25.83	2144	-0.88
25.78	2146	-0.88
25.74	2148	-0.88
25.70	2150	-0.88
25.66	2153	-0.88
25.61	2155	-0.88
25.57	2157	-0.89
25.53	2159	-0.89
25.49	2161	-0.89
25.44	2163	-0.89
25.40	2165	-0.89
25.36	2167	-0.89
25.32	2169	-0.89
25.28	2171	-0.89
25.23	2174	-0.89
25.19	2176	-0.89
25.15	2178	-0.89
25.11	2180	-0.89
25.06	2182	-0.89
25.02	2184	-0.89
24.98	2186	-0.89
24.94	2188	-0.89
24.89	2190	-0.89
24.85	2192	-0.89
24.81	2195	-0.89
24.77	2197	-0.89
24.72	2199	-0.89
24.68	2201	-0.89
24.64	2203	-0.89
24.60	2205	-0.89
24.55	2207	-0.89
24.51	2209	-0.90
24.47	2211	-0.89
24.43	2213	-0.89
24.38	2216	-0.90
24.34	2218	-0.90
24.30	2220	-0.90
24.26	2222	-0.90
24.21	2224	-0.90
24.17	2226	-0.90
24.13	2228	-0.90
24.09	2230	-0.90
24.04	2232	-0.90
24.00	2234	-0.90
23.96	2237	-0.90
23.92	2239	-0.90
23.88	2241	-0.90
23.83	2243	-0.90
23.79	2245	-0.90
23.75	2247	-0.90
23.71	2249	-0.90
23.66	2251	-0.90
23.62	2253	-0.90
23.58	2255	-0.90
23.54	2258	-0.90
23.49	2260	-0.90
23.45	2262	-0.90
23.41	2264	-0.90
23.37	2266	-0.90
23.32	2268	-0.90
23.28	2270	-0.90
23.24	2272	-0.90
23.19	2274	-0.90
23.15	2276	-0.90
23.11	2279	-0.90
23.07	2281	-0.90
23.03	2283	-0.90
22.98	2285	-0.90
22.94	2287	-0.90
22.90	2289	-0.91
22.86	2291	-0.90
22.81	2293	-0.90
22.77	2295	-0.90
22.73	2297	-0.90
22.69	2300	-0.90
22.65	2302	-0.90
22.60	2304	-0.91
22.56	2306	-0.91
22.52	2308	-0.91
22.48	2310	-0.91
22.43	2312	-0.91
22.39	2314	-0.91
22.35	2316	-0.91
22.31	2318	-0.91
22.26	2321	-0.91
22.22	2323	-0.91
22.18	2325	-0.91
22.14	2327	-0.91
22.09	2329	-0.91
22.05	2331	-0.91
22.01	2333	-0.91
21.97	2335	-0.91
21.92	2337	-0.91
21.88	2339	-0.91
21.84	2342	-0.91
21.80	2344	-0.91
21.75	2346	-0.91
21.71	2348	-0.91
21.67	2350	-0.91
21.63	2352	-0.91
21.58	2354	-0.91
21.54	2356	-0.91
21.50	2358	-0.91
21.46	2360	-0.91
21.42	2363	-0.91
21.37	2365	-0.91
21.33	2367	-0.91
21.29	2369	-0.91
21.25	2371	-0.91
21.20	2373	-0.91
21.16	2375	-0.91
21.12	2377	-0.91
21.08	2379	-0.91
21.03	2381	-0.91
20.99	2384	-0.92
20.95	2386	-0.92
20.91	2388	-0.92
20.86	2390	-0.92
20.82	2392	-0.92
20.78	2394	-0.92
20.74	2396	-0.92
20.69	2398	-0.92
20.65	2400	-0.92
20.61	2402	-0.92
20.57	2405	-0.92
20.53	2407	-0.92
20.48	2409	-0.92
20.44	2411	-0.92
20.40	2413	-0.92
20.36	2415	-0.92
20.31	2417	-0.92
20.27	2419	-0.92
20.23	2421	-0.92
20.19	2423	-0.92
20.14	2426	-0.92
20.10	2428	-0.92
20.06	2430	-0.92
20.02	2432	-0.92
19.98	2434	-0.92
19.93	2436	-0.92
19.89	2438	-0.92
19.85	2440	-0.92
19.80	2442	-0.92
19.76	2444	-0.92
19.72	2447	-0.92
19.68	2449	-0.92
19.64	2451	-0.92
19.59	2453	-0.92
19.55	2455	-0.92
19.51	2457	-0.92
19.46	2459	-0.92
19.42	2461	-0.92
19.38	2463	-0.93
19.34	2465	-0.93
19.30	2468	-0.92
19.25	2470	-0.92
19.21	2472	-0.92
19.17	2474	-0.92
19.13	2476	-0.93
19.08	2478	-0.93
19.04	2480	-0.93
19.00	2482	-0.93
18.96	2484	-0.93
18.91	2486	-0.93
18.87	2489	-0.93
18.83	2491	-0.93
18.79	2493	-0.93
18.74	2495	-0.93
18.70	2497	-0.93
18.66	2499	-0.93
18.62	2501	-0.93
18.57	2503	-0.93
18.53	2505	-0.93
18.49	2507	-0.93
18.45	2510	-0.93
18.41	2512	-0.93
18.36	2514	-0.93
18.32	2516	-0.93
18.28	2518	-0.93
18.24	2520	-0.93
18.19	2522	-0.93
18.15	2524	-0.93
18.11	2526	-0.93
18.07	2528	-0.93
18.03	2531	-0.93
17.98	2533	-0.93
17.94	2535	-0.93
17.90	2537	-0.93
17.86	2539	-0.93
17.81	2541	-0.93
17.77	2543	-0.93
17.73	2545	-0.93
17.69	2547	-0.93
17.64	2549	-0.93
17.60	2552	-0.93
17.56	2554	-0.93
17.52	2556	-0.93
17.47	2558	-0.93
17.43	2560	-0.94
17.39	2562	-0.94
17.35	2564	-0.93
17.30	2566	-0.93
17.26	2568	-0.94
17.22	2570	-0.94
17.18	2573	-0.94
17.13	2575	-0.94
17.09	2577	-0.94
17.05	2579	-0.94
17.01	2581	-0.94
16.97	2583	-0.94
16.92	2585	-0.94
16.88	2587	-0.94
16.84	2589	-0.94
16.80	2591	-0.94
16.75	2594	-0.94
16.71	2596	-0.94
16.67	2598	-0.94
16.63	2600	-0.94
16.59	2602	-0.94
16.54	2604	-0.94
16.50	2606	-0.94
16.46	2608	-0.94
16.42	2610	-0.94
16.37	2612	-0.94
16.33	2615	-0.94
16.29	2617	-0.94
16.25	2619	-0.94
16.21	2621	-0.94
16.16	2623	-0.94
16.12	2625	-0.94
16.08	2627	-0.94
16.04	2629	-0.94
15.99	2631	-0.94
15.95	2633	-0.94
15.91	2636	-0.94
15.87	2638	-0.94
15.82	2640	-0.94
15.78	2642	-0.94
15.74	2644	-0.95
15.70	2646	-0.94
15.66	2648	-0.94
15.61	2650	-0.94
15.57	2652	-0.94
15.53	2654	-0.94
15.49	2657	-0.94
15.44	2659	-0.94
15.40	2661	-0.94
15.36	2663	-0.94
15.32	2665	-0.94
15.28	2667	-0.95
15.23	2669	-0.95
15.19	2671	-0.95
15.15	2673	-0.95
15.11	2675	-0.95
15.06	2678	-0.95
15.02	2680	-0.95
14.98	2682	-0.95
14.94	2684	-0.95
14.90	2686	-0.95
14.85	2688	-0.95
14.81	2690	-0.95
14.77	2692	-0.95
14.73	2694	-0.95
14.68	2696	-0.95
14.64	2699	-0.95
14.60	2701	-0.95
14.56	2703	-0.95
14.52	2705	-0.95
14.47	2707	-0.95
14.43	2709	-0.95
14.39	2711	-0.95
14.35	2713	-0.95
14.30	2715	-0.95
14.26	2717	-0.95
14.22	2720	-0.95
14.18	2722	-0.95
14.13	2724	-0.95
14.09	2726	-0.95
14.05	2728	-0.95
14.01	2730	-0.95
13.97	2732	-0.95
13.92	2734	-0.95
13.88	2736	-0.95
13.84	2738	-0.95
13.80	2741	-0.95
13.75	2743	-0.95
13.71	2745	-0.95
13.67	2747	-0.96
13.63	2749	-0.96
13.59	2751	-0.95
13.54	2753	-0.95
13.50	2755	-0.95
13.46	2757	-0.95
13.42	2759	-0.95
13.38	2762	-0.95
13.33	2764	-0.95
13.29	2766	-0.95
13.25	2768	-0.96
13.21	2770	-0.96
13.16	2772	-0.96
13.12	2774	-0.96
13.08	2776	-0.96
13.04	2778	-0.96
13.00	2780	-0.96
12.95	2783	-0.96
12.91	2785	-0.96
12.87	2787	-0.96
12.83	2789	-0.96
12.79	2791	-0.96
12.74	2793	-0.96
12.70	2795	-0.96
12.66	2797	-0.96
12.62	2799	-0.96
12.57	2801	-0.96
12.53	2804	-0.96
12.49	2806	-0.96
12.45	2808	-0.96
12.41	2810	-0.96
12.37	2812	-0.96
12.32	2814	-0.96
12.28	2816	-0.96
12.24	2818	-0.96
12.20	2820	-0.96
12.15	2822	-0.96
12.11	2825	-0.96
12.07	2827	-0.96
12.03	2829	-0.96
11.99	2831	-0.96
11.95	2833	-0.96
11.90	2835	-0.96
11.86	2837	-0.96
11.82	2839	-0.96
11.78	2841	-0.96
11.74	2843	-0.96
11.69	2846	-0.96
11.65	2848	-0.96
11.61	2850	-0.96
11.57	2852	-0.96
11.53	2854	-0.96
11.48	2856	-0.96
11.44	2858	-0.96
11.40	2860	-0.96
11.36	2862	-0.96
11.32	2864	-0.96
11.27	2867	-0.96
11.23	2869	-0.96
11.19	2871	-0.96
11.15	2873	-0.96
11.11	2875	-0.96
11.06	2877	-0.96
11.02	2879	-0.96
10.98	2881	-0.96
10.94	2883	-0.96
10.90	2885	-0.96
10.86	2888	-0.95
10.82	2890	-0.95
10.77	2892	-0.95
10.73	2894	-0.95
10.69	2896	-0.95
10.65	2898	-0.95
10.61	2900	-0.95
10.57	2902	-0.95
10.52	2904	-0.95
10.48	2906	-0.95
10.44	2909	-0.95
10.40	2911	-0.95
10.36	2913	-0.95
10.31	2915	-0.95
10.27	2917	-0.95
10.23	2919	-0.95
10.19	2921	-0.95
10.15	2923	-0.95
10.11	2925	-0.95
10.06	2927	-0.95
10.02	2930	-0.94
9.98	2932	-0.94
9.94	2934	-0.95
9.90	2936	-0.94
9.86	2938	-0.94
9.82	2940	-0.94
9.77	2942	-0.94
9.73	2944	-0.94
9.69	2946	-0.94
9.65	2948	-0.94
9.61	2951	-0.94
9.57	2953	-0.93
9.53	2955	-0.93
9.48	2957	-0.93
9.44	2959	-0.93
9.40	2961	-0.93
9.36	2963	-0.93
9.32	2965	-0.93
9.28	2967	-0.93
9.24	2969	-0.93
9.19	2972	-0.93
9.15	2974	-0.92
9.11	2976	-0.92
9.07	2978	-0.92
9.03	2980	-0.92
8.99	2982	-0.92
8.95	2984	-0.92
8.91	2986	-0.92
8.87	2988	-0.92
8.83	2990	-0.91
8.78	2993	-0.91
8.74	2995	-0.91
8.70	2997	-0.91
8.66	2999	-0.91
8.65	3000	-0.91