File: rawdata/empty_5
empty
Furnace temperature 	Time	HeatFlow
/°C	/s	/mW
64.80	0	0.23
64.93	2	0.23
65.28	4	0.23
65.74	6	0.22
66.28	8	0.22
66.79	11	0.21
67.23	13	0.20
67.56	15	0.18
67.76	17	0.16
67.87	19	0.14
67.90	21	0.11
67.90	23	0.09
67.88	25	0.07
67.86	27	0.05
67.85	29	0.03
67.85	32	0.01
67.85	34	-0.01
67.86	36	-0.02
67.86	38	-0.03
67.86	40	-0.05
67.85	42	-0.06
67.83	44	-0.07
67.81	46	-0.08
67.79	48	-0.08
67.77	50	-0.09
67.75	53	-0.09
67.72	55	-0.10
67.70	57	-0.10
67.68	59	-0.10
67.65	61	-0.11
67.62	63	-0.11
67.59	65	-0.11
67.57	67	-0.11
67.54	69	-0.11
67.51	71	-0.10
67.48	74	-0.10
67.45	76	-0.10
67.42	78	-0.10
67.38	80	-0.10
67.35	82	-0.10
67.32	84	-0.10
67.28	86	-0.10
67.25	88	-0.09
67.21	90	-0.09
67.18	92	-0.09
67.14	95	-0.09
67.11	97	-0.09
67.07	99	-0.09
67.04	101	-0.09
67.00	103	-0.09
66.96	105	-0.09
66.93	107	-0.09
66.89	109	-0.09
66.85	111	-0.09
66.81	113	-0.09
66.78	116	-0.09
66.74	118	-0.09
66.70	120	-0.09
66.66	122	-0.10
66.62	124	-0.10
66.58	126	-0.10
66.55	128	-0.10
66.51	130	-0.11
66.47	132	-0.11
66.43	134	-0.11
66.39	137	-0.12
66.35	139	-0.12
66.31	141	-0.13
66.27	143	-0.13
66.23	145	-0.13
66.19	147	-0.14
66.15	149	-0.14
66.11	151	-0.15
66.07	153	-0.15
66.03	155	-0.16
65.99	158	-0.16
65.95	160	-0.17
65.90	162	-0.17
65.90	164	-0.18
65.91	166	-0.19
65.90	168	-0.19
65.88	170	-0.20
65.84	172	-0.21
65.80	174	-0.21
65.74	176	-0.22
65.69	179	-0.22
65.64	181	-0.23
65.60	183	-0.24
65.57	185	-0.24
65.54	187	-0.25
65.50	189	-0.26
65.47	191	-0.26
65.43	193	-0.27
65.39	195	-0.28
65.35	197	-0.28
65.31	200	-0.29
65.26	202	-0.30
65.22	204	-0.30
65.18	206	-0.31
65.14	208	-0.31
65.10	210	-0.32
65.06	212	-0.32
65.02	214	-0.33
64.98	216	-0.34
64.93	218	-0.34
64.89	221	-0.35
64.85	223	-0.35
64.81	225	-0.36
64.77	227	-0.36
64.72	229	-0.37
64.68	231	-0.38
64.64	233	-0.38
64.59	235	-0.39
64.55	237	-0.39
64.51	239	-0.40
64.46	242	-0.40
64.42	244	-0.41
64.38	246	-0.42
64.34	248	-0.42
64.29	250	-0.42
64.25	252	-0.43
64.21	254	-0.44
64.16	256	-0.44
64.12	258	-0.45
64.07	260	-0.45
64.03	263	-0.45
63.99	265	-0.46
63.95	267	-0.46
63.90	269	-0.47
63.86	271	-0.47
63.81	273	-0.48
63.77	275	-0.48
63.72	277	-0.49
63.68	279	-0.49
63.64	281	-0.50
63.59	284	-0.50
63.55	286	-0.51
63.51	288	-0.51
63.46	290	-0.52
63.42	292	-0.52
63.38	294	-0.52
63.33	296	-0.53
63.29	298	-0.53
63.25	300	-0.54
63.20	302	-0.54
63.16	305	-0.55
63.11	307	-0.55
63.07	309	-0.55
63.03	311	-0.55
62.98	313	-0.56
62.94	315	-0.56
62.90	317	-0.57
62.85	319	-0.57
62.81	321	-0.58
62.77	323	-0.58
62.72	326	-0.58
62.68	328	-0.58
62.64	330	-0.59
62.59	332	-0.59
62.55	334	-0.59
62.51	336	-0.59
62.46	338	-0.60
62.42	340	-0.60
62.37	342	-0.61
62.33	344	-0.61
62.29	347	-0.61
62.24	349	-0.61
62.20	351	-0.62
62.16	353	-0.62
62.11	355	-0.62
62.07	357	-0.62
62.03	359	-0.63
61.98	361	-0.63
61.94	363	-0.63
61.90	365	-0.63
61.85	368	-0.63
61.81	370	-0.63
61.76	372	-0.64
61.72	374	-0.64
61.68	376	-0.64
61.63	378	-0.65
61.59	380	-0.65
61.55	382	-0.65
61.50	384	-0.65
61.46	386	-0.65
61.42	389	-0.65
61.37	391	-0.66
61.33	393	-0.66
61.29	395	-0.66
61.24	397	-0.66
61.20	399	-0.66
61.16	401	-0.66
61.11	403	-0.67
61.07	405	-0.67
61.03	407	-0.67
60.98	410	-0.67
60.94	412	-0.67
60.90	414	-0.67
60.85	416	-0.67
60.81	418	-0.67
60.77	420	-0.67
60.72	422	-0.67
60.68	424	-0.67
60.64	426	-0.68
60.60	428	-0.68
60.55	431	-0.68
60.51	433	-0.68
60.47	435	-0.68
60.42	437	-0.68
60.38	439	-0.68
60.33	441	-0.68
60.29	443	-0.68
60.25	445	-0.68
60.21	447	-0.68
60.16	449	-0.68
60.12	452	-0.68
60.08	454	-0.68
60.03	456	-0.68
59.99	458	-0.69
59.95	460	-0.69
59.90	462	-0.69
59.86	464	-0.69
59.82	466	-0.69
59.78	468	-0.69
59.73	470	-0.69
59.69	473	-0.69
59.65	475	-0.69
59.60	477	-0.69
59.56	479	-0.69
59.52	481	-0.69
59.47	483	-0.69
59.43	485	-0.69
59.39	487	-0.69
59.35	489	-0.69
59.30	491	-0.70
59.26	494	-0.69
59.22	496	-0.69
59.17	498	-0.69
59.13	500	-0.69
59.09	502	-0.69
59.05	504	-0.69
59.00	506	-0.69
58.96	508	-0.69
58.92	510	-0.69
58.87	512	-0.69
58.83	515	-0.70
58.79	517	-0.70
58.75	519	-0.70
58.70	521	-0.69
58.66	523	-0.69
58.62	525	-0.69
58.57	527	-0.70
58.53	529	-0.70
58.49	531	-0.70
58.45	533	-0.70
58.40	536	-0.70
58.36	538	-0.70
58.32	540	-0.70
58.27	542	-0.69
58.23	544	-0.70
58.19	546	-0.70
58.14	548	-0.69
58.10	550	-0.69
58.06	552	-0.69
58.02	554	-0.70
57.97	557	-0.70
57.93	559	-0.70
57.89	561	-0.70
57.84	563	-0.70
57.80	565	-0.69
57.76	567	-0.70
57.72	569	-0.69
57.67	571	-0.69
57.63	573	-0.69
57.59	575	-0.69
57.54	578	-0.69
57.50	580	-0.69
57.46	582	-0.69
57.42	584	-0.69
57.38	586	-0.70
57.33	588	-0.69
57.29	590	-0.69
57.25	592	-0.70
57.20	594	-0.70
57.16	596	-0.70
57.12	599	-0.70
57.08	601	-0.70
57.03	603	-0.70
56.99	605	-0.70
56.95	607	-0.70
56.90	609	-0.70
56.86	611	-0.70
56.82	613	-0.70
56.78	615	-0.70
56.73	617	-0.70
56.69	620	-0.70
56.65	622	-0.70
56.61	624	-0.70
56.56	626	-0.70
56.52	628	-0.70
56.48	630	-0.70
56.43	632	-0.70
56.39	634	-0.70
56.35	636	-0.70
56.31	638	-0.70
56.26	641	-0.70
56.22	643	-0.70
56.18	645	-0.70
56.14	647	-0.70
56.09	649	-0.70
56.05	651	-0.70
56.01	653	-0.70
55.97	655	-0.70
55.92	657	-0.70
55.88	659	-0.70
55.84	662	-0.70
55.80	664	-0.70
55.75	666	-0.70
55.71	668	-0.70
55.67	670	-0.70
55.62	672	-0.70
55.58	674	-0.70
55.54	676	-0.70
55.50	678	-0.70
55.45	680	-0.70
55.41	683	-0.70
55.37	685	-0.70
55.33	687	-0.70
55.28	689	-0.70
55.24	691	-0.70
55.20	693	-0.70
55.16	695	-0.70
55.11	697	-0.70
55.07	699	-0.70
55.03	701	-0.70
54.98	704	-0.70
54.94	706	-0.70
54.90	708	-0.70
54.86	710	-0.70
54.82	712	-0.70
54.77	714	-0.70
54.73	716	-0.70
54.69	718	-0.70
54.64	720	-0.70
54.60	722	-0.70
54.56	725	-0.70
54.52	727	-0.70
54.47	729	-0.70
54.43	731	-0.70
54.39	733	-0.70
54.35	735	-0.70
54.30	737	-0.70
54.26	739	-0.70
54.22	741	-0.70
54.17	743	-0.70
54.13	746	-0.70
54.09	748	-0.70
54.05	750	-0.70
54.01	752	-0.70
53.96	754	-0.70
53.92	756	-0.70
53.88	758	-0.70
53.83	760	-0.70
53.79	762	-0.70
53.75	764	-0.70
53.71	767	-0.70
53.66	769	-0.70
53.62	771	-0.70
53.58	773	-0.70
53.54	775	-0.70
53.49	777	-0.70
53.45	779	-0.70
53.41	781	-0.71
53.37	783	-0.71
53.32	785	-0.71
53.28	788	-0.71
53.24	790	-0.71
53.20	792	-0.71
53.15	794	-0.71
53.11	796	-0.71
53.07	798	-0.71
53.03	800	-0.71
52.98	802	-0.71
52.94	804	-0.71
52.90	806	-0.71
52.86	809	-0.71
52.81	811	-0.71
52.77	813	-0.71
52.73	815	-0.71
52.69	817	-0.71
52.64	819	-0.71
52.60	821	-0.71
52.56	823	-0.71
52.52	825	-0.71
52.47	827	-0.71
52.43	830	-0.71
52.39	832	-0.71
52.35	834	-0.71
52.30	836	-0.71
52.26	838	-0.71
52.22	840	-0.70
52.18	842	-0.71
52.13	844	-0.71
52.09	846	-0.71
52.05	848	-0.71
52.01	851	-0.71
51.96	853	-0.71
51.92	855	-0.71
51.88	857	-0.71
51.83	859	-0.71
51.79	861	-0.71
51.75	863	-0.71
51.71	865	-0.71
51.67	867	-0.71
51.62	869	-0.71
51.58	872	-0.71
51.54	874	-0.71
51.50	876	-0.71
51.45	878	-0.71
51.41	880	-0.71
51.37	882	-0.71
51.32	884	-0.71
51.28	886	-0.71
51.24	888	-0.71
51.20	890	-0.71
51.15	893	-0.71
51.11	895	-0.71
51.07	897	-0.71
51.03	899	-0.71
50.98	901	-0.72
50.94	903	-0.72
50.90	905	-0.71
50.86	907	-0.71
50.81	909	-0.71
50.77	911	-0.72
50.73	914	-0.72
50.69	916	-0.72
50.64	918	-0.72
50.60	920	-0.72
50.56	922	-0.72
50.52	924	-0.71
50.47	926	-0.72
50.43	928	-0.72
50.39	930	-0.72
50.35	932	-0.72
50.30	935	-0.72
50.26	937	-0.72
50.22	939	-0.72
50.17	941	-0.72
50.13	943	-0.72
50.09	945	-0.72
50.05	947	-0.72
50.01	949	-0.72
49.96	951	-0.72
49.92	953	-0.72
49.88	956	-0.72
49.84	958	-0.72
49.79	960	-0.72
49.75	962	-0.72
49.71	964	-0.72
49.67	966	-0.72
49.62	968	-0.72
49.58	970	-0.72
49.54	972	-0.72
49.50	974	-0.72
49.45	977	-0.72
49.41	979	-0.72
49.37	981	-0.72
49.33	983	-0.72
49.28	985	-0.72
49.24	987	-0.73
49.20	989	-0.73
49.15	991	-0.73
49.11	993	-0.72
49.07	995	-0.73
49.03	998	-0.73
48.99	1000	-0.73
48.94	1002	-0.72
48.90	1004	-0.72
48.86	1006	-0.73
48.81	1008	-0.73
48.77	1010	-0.72
48.73	1012	-0.72
48.69	1014	-0.72
48.64	1016	-0.73
48.60	1019	-0.73
48.56	1021	-0.73
48.52	1023	-0.73
48.47	1025	-0.73
48.43	1027	-0.73
48.39	1029	-0.73
48.35	1031	-0.73
48.30	1033	-0.73
48.26	1035	-0.73
48.22	1037	-0.73
48.18	1040	-0.73
48.13	1042	-0.73
48.09	1044	-0.73
48.05	1046	-0.73
48.01	1048	-0.73
47.96	1050	-0.73
47.92	1052	-0.73
47.88	1054	-0.73
47.84	1056	-0.73
47.79	1058	-0.73
47.75	1061	-0.73
47.71	1063	-0.73
47.67	1065	-0.74
47.62	1067	-0.74
47.58	1069	-0.74
47.54	1071	-0.74
47.50	1073	-0.74
47.45	1075	-0.74
47.41	1077	-0.74
47.37	1079	-0.74
47.33	1082	-0.74
47.28	1084	-0.74
47.24	1086	-0.74
47.20	1088	-0.74
47.16	1090	-0.74
47.11	1092	-0.74
47.07	1094	-0.74
47.03	1096	-0.74
46.99	1098	-0.74
46.94	1100	-0.74
46.90	1103	-0.74
46.86	1105	-0.74
46.82	1107	-0.74
46.78	1109	-0.74
46.73	1111	-0.74
46.69	1113	-0.74
46.65	1115	-0.74
46.61	1117	-0.74
46.56	1119	-0.74
46.52	1121	-0.74
46.48	1124	-0.74
46.44	1126	-0.74
46.39	1128	-0.74
46.35	1130	-0.74
46.31	1132	-0.74
46.27	1134	-0.74
46.22	1136	-0.74
46.18	1138	-0.74
46.14	1140	-0.75
46.09	1142	-0.74
46.05	1145	-0.75
46.01	1147	-0.75
45.97	1149	-0.75
45.92	1151	-0.75
45.88	1153	-0.75
45.84	1155	-0.75
45.80	1157	-0.75
45.76	1159	-0.75
45.71	1161	-0.75
45.67	1163	-0.75
45.63	1166	-0.75
45.58	1168	-0.75
45.54	1170	-0.75
45.50	1172	-0.75
45.46	1174	-0.75
45.42	1176	-0.75
45.37	1178	-0.75
45.33	1180	-0.75
45.29	1182	-0.75
45.25	1184	-0.75
45.20	1187	-0.75
45.16	1189	-0.75
45.12	1191	-0.75
45.08	1193	-0.75
45.03	1195	-0.75
44.99	1197	-0.75
44.95	1199	-0.75
44.91	1201	-0.75
44.86	1203	-0.75
44.82	1205	-0.75
44.78	1208	-0.75
44.73	1210	-0.76
44.69	1212	-0.76
44.65	1214	-0.76
44.61	1216	-0.75
44.57	1218	-0.75
44.52	1220	-0.76
44.48	1222	-0.76
44.44	1224	-0.76
44.40	1226	-0.76
44.35	1229	-0.76
44.31	1231	-0.76
44.27	1233	-0.76
44.22	1235	-0.76
44.18	1237	-0.76
44.14	1239	-0.76
44.10	1241	-0.76
44.05	1243	-0.76
44.01	1245	-0.76
43.97	1247	-0.76
43.93	1250	-0.76
43.88	1252	-0.76
43.84	1254	-0.76
43.80	1256	-0.76
43.76	1258	-0.76
43.71	1260	-0.76
43.67	1262	-0.76
43.63	1264	-0.76
43.59	1266	-0.76
43.54	1268	-0.76
43.50	1271	-0.77
43.46	1273	-0.77
43.42	1275	-0.77
43.37	1277	-0.76
43.33	1279	-0.76
43.29	1281	-0.76
43.25	1283	-0.77
43.20	1285	-0.77
43.16	1287	-0.77
43.12	1289	-0.77
43.08	1292	-0.77
43.03	1294	-0.77
42.99	1296	-0.77
42.95	1298	-0.77
42.91	1300	-0.77
42.86	1302	-0.77
42.82	1304	-0.77
42.78	1306	-0.77
42.74	1308	-0.77
42.69	1310	-0.77
42.65	1313	-0.77
42.61	1315	-0.77
42.57	1317	-0.77
42.52	1319	-0.77
42.48	1321	-0.77
42.44	1323	-0.77
42.40	1325	-0.77
42.35	1327	-0.77
42.31	1329	-0.78
42.27	1331	-0.78
42.23	1334	-0.78
42.18	1336	-0.78
42.14	1338	-0.78
42.10	1340	-0.78
42.06	1342	-0.78
42.01	1344	-0.78
41.97	1346	-0.78
41.93	1348	-0.78
41.89	1350	-0.78
41.84	1352	-0.78
41.80	1355	-0.78
41.76	1357	-0.77
41.72	1359	-0.77
41.67	1361	-0.78
41.63	1363	-0.78
41.59	1365	-0.78
41.55	1367	-0.78
41.50	1369	-0.78
41.46	1371	-0.78
41.42	1373	-0.78
41.38	1376	-0.78
41.33	1378	-0.78
41.29	1380	-0.78
41.25	1382	-0.78
41.21	1384	-0.78
41.16	1386	-0.78
41.12	1388	-0.78
41.08	1390	-0.78
41.04	1392	-0.78
40.99	1394	-0.78
40.95	1397	-0.78
40.91	1399	-0.78
40.87	1401	-0.78
40.82	1403	-0.79
40.78	1405	-0.79
40.74	1407	-0.79
40.69	1409	-0.79
40.65	1411	-0.79
40.61	1413	-0.78
40.57	1415	-0.78
40.52	1418	-0.78
40.48	1420	-0.79
40.44	1422	-0.79
40.40	1424	-0.79
40.36	1426	-0.79
40.31	1428	-0.79
40.27	1430	-0.79
40.23	1432	-0.79
40.19	1434	-0.79
40.14	1436	-0.79
40.10	1439	-0.79
40.06	1441	-0.79
40.02	1443	-0.79
39.97	1445	-0.79
39.93	1447	-0.79
39.89	1449	-0.79
39.84	1451	-0.79
39.80	1453	-0.79
39.76	1455	-0.79
39.72	1457	-0.79
39.68	1460	-0.79
39.63	1462	-0.79
39.59	1464	-0.79
39.55	1466	-0.79
39.50	1468	-0.79
39.46	1470	-0.80
39.42	1472	-0.80
39.38	1474	-0.79
39.33	1476	-0.79
39.29	1478	-0.79
39.25	1481	-0.80
39.21	1483	-0.80
39.17	1485	-0.80
39.12	1487	-0.80
39.08	1489	-0.80
39.04	1491	-0.80
38.99	1493	-0.80
38.95	1495	-0.80
38.91	1497	-0.80
38.87	1499	-0.80
38.82	1502	-0.80
38.78	1504	-0.80
38.74	1506	-0.80
38.70	1508	-0.80
38.66	1510	-0.80
38.61	1512	-0.80
38.57	1514	-0.80
38.53	1516	-0.80
38.49	1518	-0.80
38.44	1520	-0.80
38.40	1523	-0.80
38.36	1525	-0.80
38.31	1527	-0.80
38.27	1529	-0.80
38.23	1531	-0.80
38.19	1533	-0.80
38.14	1535	-0.80
38.10	1537	-0.80
38.06	1539	-0.80
38.02	1541	-0.80
37.98	1544	-0.81
37.93	1546	-0.81
37.89	1548	-0.81
37.85	1550	-0.81
37.81	1552	-0.81
37.76	1554	-0.81
37.72	1556	-0.81
37.68	1558	-0.81
37.63	1560	-0.81
37.59	1562	-0.81
37.55	1565	-0.81
37.51	1567	-0.81
37.46	1569	-0.81
37.42	1571	-0.81
37.38	1573	-0.81
37.34	1575	-0.81
37.29	1577	-0.81
37.25	1579	-0.81
37.21	1581	-0.81
37.17	1583	-0.81
37.12	1586	-0.81
37.08	1588	-0.81
37.04	1590	-0.81
37.00	1592	-0.81
36.95	1594	-0.81
36.91	1596	-0.81
36.87	1598	-0.81
36.83	1600	-0.81
36.79	1602	-0.82
36.74	1604	-0.82
36.70	1607	-0.81
36.66	1609	-0.82
36.62	1611	-0.82
36.57	1613	-0.82
36.53	1615	-0.82
36.49	1617	-0.82
36.45	1619	-0.82
36.40	1621	-0.82
36.36	1623	-0.82
36.32	1625	-0.82
36.28	1628	-0.82
36.23	1630	-0.82
36.19	1632	-0.82
36.15	1634	-0.82
36.10	1636	-0.82
36.06	1638	-0.82
36.02	1640	-0.82
35.98	1642	-0.83
35.94	1644	-0.83
35.89	1646	-0.83
35.85	1649	-0.83
35.81	1651	-0.83
35.77	1653	-0.83
35.72	1655	-0.83
35.68	1657	-0.83
35.64	1659	-0.83
35.60	1661	-0.83
35.55	1663	-0.83
35.51	1665	-0.83
35.47	1667	-0.83
35.43	1670	-0.83
35.38	1672	-0.83
35.34	1674	-0.83
35.30	1676	-0.83
35.26	1678	-0.83
35.21	1680	-0.83
35.17	1682	-0.83
35.13	1684	-0.83
35.09	1686	-0.83
35.05	1688	-0.83
35.00	1691	-0.83
34.96	1693	-0.83
34.92	1695	-0.83
34.87	1697	-0.83
34.83	1699	-0.83
34.79	1701	-0.83
34.75	1703	-0.83
34.70	1705	-0.83
34.66	1707	-0.83
34.62	1709	-0.83
34.58	1712	-0.83
34.53	1714	-0.83
34.49	1716	-0.83
34.45	1718	-0.83
34.41	1720	-0.83
34.36	1722	-0.83
34.32	1724	-0.83
34.28	1726	-0.83
34.24	1728	-0.83
34.19	1730	-0.83
34.15	1733	-0.83
34.11	1735	-0.84
34.07	1737	-0.83
34.02	1739	-0.83
33.98	1741	-0.83
33.94	1743	-0.83
33.90	1745	-0.84
33.86	1747	-0.84
33.81	1749	-0.84
33.77	1751	-0.84
33.73	1754	-0.84
33.68	1756	-0.84
33.64	1758	-0.84
33.60	1760	-0.84
33.56	1762	-0.84
33.52	1764	-0.84
33.47	1766	-0.84
33.43	1768	-0.84
33.39	1770	-0.84
33.35	1772	-0.84
33.30	1775	-0.84
33.26	1777	-0.84
33.22	1779	-0.84
33.18	1781	-0.84
33.13	1783	-0.84
33.09	1785	-0.84
33.05	1787	-0.84
33.00	1789	-0.84
32.96	1791	-0.84
32.91	1793	-0.84
32.87	1796	-0.84
32.82	1798	-0.84
32.78	1800	-0.84
32.74	1802	-0.84
32.69	1804	-0.85
32.65	1806	-0.85
32.61	1808	-0.85
32.57	1810	-0.85
32.53	1812	-0.85
32.48	1814	-0.84
32.44	1817	-0.85
32.40	1819	-0.85
32.36	1821	-0.85
32.31	1823	-0.85
32.27	1825	-0.85
32.23	1827	-0.85
32.19	1829	-0.85
32.14	1831	-0.85
32.10	1833	-0.85
32.06	1835	-0.85
32.01	1838	-0.85
31.97	1840	-0.85
31.93	1842	-0.85
31.89	1844	-0.85
31.84	1846	-0.85
31.80	1848	-0.85
31.76	1850	-0.85
31.72	1852	-0.85
31.67	1854	-0.85
31.63	1856	-0.85
31.59	1859	-0.85
31.55	1861	-0.85
31.51	1863	-0.85
31.46	1865	-0.85
31.42	1867	-0.85
31.38	1869	-0.85
31.34	1871	-0.85
31.29	1873	-0.85
31.25	1875	-0.85
31.21	1877	-0.85
31.17	1880	-0.86
31.13	1882	-0.85
31.08	1884	-0.85
31.04	1886	-0.85
31.00	1888	-0.86
30.96	1890	-0.86
30.92	1892	-0.86
30.87	1894	-0.86
30.83	1896	-0.86
30.79	1898	-0.86
30.75	1901	-0.86
30.70	1903	-0.86
30.66	1905	-0.85
30.62	1907	-0.85
30.58	1909	-0.85
30.53	1911	-0.85
30.49	1913	-0.85
30.45	1915	-0.86
30.41	1917	-0.86
30.36	1919	-0.86
30.32	1922	-0.85
30.28	1924	-0.86
30.23	1926	-0.86
30.19	1928	-0.86
30.15	1930	-0.86
30.11	1932	-0.86
30.06	1934	-0.86
30.02	1936	-0.86
29.98	1938	-0.86
29.94	1940	-0.86
29.90	1943	-0.86
29.85	1945	-0.86
29.81	1947	-0.86
29.77	1949	-0.86
29.73	1951	-0.86
29.68	1953	-0.86
29.64	1955	-0.86
29.60	1957	-0.86
29.56	1959	-0.86
29.51	1961	-0.86
29.47	1964	-0.86
29.43	1966	-0.86
29.39	1968	-0.86
29.35	1970	-0.86
29.30	1972	-0.86
29.26	1974	-0.87
29.22	1976	-0.87
29.18	1978	-0.87
29.13	1980	-0.87
29.09	1982	-0.87
29.05	1985	-0.87
29.01	1987	-0.87
28.96	1989	-0.87
28.92	1991	-0.87
28.88	1993	-0.87
28.84	1995	-0.87
28.79	1997	-0.87
28.75	1999	-0.87
28.71	2001	-0.87
28.67	2003	-0.87
28.63	2006	-0.87
28.58	2008	-0.87
28.54	2010	-0.87
28.50	2012	-0.87
28.46	2014	-0.87
28.41	2016	-0.87
28.37	2018	-0.87
28.33	2020	-0.88
28.29	2022	-0.88
28.24	2024	-0.88
28.20	2027	-0.88
28.16	2029	-0.88
28.12	2031	-0.88
28.07	2033	-0.88
28.03	2035	-0.88
27.99	2037	-0.88
27.95	2039	-0.88
27.90	2041	-0.88
27.86	2043	-0.88
27.82	2045	-0.88
27.78	2048	-0.88
27.74	2050	-0.88
27.69	2052	-0.88
27.65	2054	-0.88
27.61	2056	-0.88
27.57	2058	-0.88
27.52	2060	-0.88
27.48	2062	-0.88
27.44	2064	-0.88
27.40	2066	-0.88
27.35	2069	-0.88
27.31	2071	-0.88
27.27	2073	-0.88
27.23	2075	-0.88
27.18	2077	-0.88
27.14	2079	-0.88
27.10	2081	-0.88
27.06	2083	-0.88
27.01	2085	-0.88
26.97	2087	-0.88
26.93	2090	-0.88
26.89	2092	-0.88
26.84	2094	-0.88
26.80	2096	-0.88
26.76	2098	-0.88
26.72	2100	-0.88
26.68	2102	-0.88
26.63	2104	-0.89
26.59	2106	-0.89
26.55	2108	-0.88
26.51	2111	-0.88
26.46	2113	-0.89
26.42	2115	-0.89
26.38	2117	-0.89
26.34	2119	-0.89
26.29	2121	-0.89
26.25	2123	-0.89
26.21	2125	-0.89
26.17	2127	-0.89
26.12	2129	-0.89
26.08	2132	-0.89
26.04	2134	-0.89
26.00	2136	-0.89
25.95	2138	-0.89
25.91	2140	-0.89
25.87	2142	-0.89
25.83	2144	-0.89
25.78	2146	-0.89
25.74	2148	-0.89
25.70	2150	-0.89
25.66	2153	-0.89
25.61	2155	-0.89
25.57	2157	-0.89
25.53	2159	-0.89
25.49	2161	-0.89
25.44	2163	-0.89
25.40	2165	-0.89
25.36	2167	-0.90
25.32	2169	-0.90
25.27	2171	-0.90
25.23	2174	-0.90
25.19	2176	-0.90
25.15	2178	-0.90
25.10	2180	-0.90
25.06	2182	-0.90
25.02	2184	-0.90
24.98	2186	-0.90
24.93	2188	-0.90
24.89	2190	-0.90
24.85	2192	-0.90
24.81	2195	-0.90
24.76	2197	-0.90
24.72	2199	-0.90
24.68	2201	-0.90
24.64	2203	-0.90
24.59	2205	-0.90
24.55	2207	-0.90
24.51	2209	-0.90
24.47	2211	-0.90
24.43	2213	-0.90
24.38	2216	-0.90
24.34	2218	-0.90
24.30	2220	-0.90
24.26	2222	-0.90
24.21	2224	-0.90
24.17	2226	-0.90
24.13	2228	-0.90
24.09	2230	-0.90
24.04	2232	-0.90
24.00	2234	-0.90
23.96	2237	-0.90
23.92	2239	-0.91
23.87	2241	-0.90
23.83	2243	-0.90
23.79	2245	-0.91
23.75	2247	-0.90
23.70	2249	-0.90
23.66	2251	-0.90
23.62	2253	-0.91
23.58	2255	-0.91
23.53	2258	-0.91
23.49	2260	-0.91
23.45	2262	-0.91
23.41	2264	-0.91
23.36	2266	-0.91
23.32	2268	-0.91
23.28	2270	-0.91
23.24	2272	-0.91
23.20	2274	-0.91
23.15	2276	-0.91
23.11	2279	-0.91
23.07	2281	-0.91
23.03	2283	-0.91
22.98	2285	-0.91
22.94	2287	-0.91
22.90	2289	-0.91
22.86	2291	-0.91
22.81	2293	-0.91
22.77	2295	-0.91
22.73	2297	-0.91
22.69	2300	-0.91
22.65	2302	-0.91
22.60	2304	-0.91
22.56	2306	-0.91
22.52	2308	-0.91
22.48	2310	-0.91
22.43	2312	-0.91
22.39	2314	-0.91
22.35	2316	-0.91
22.31	2318	-0.91
22.26	2321	-0.92
22.22	2323	-0.92
22.18	2325	-0.91
22.14	2327	-0.91
22.09	2329	-0.91
22.05	2331	-0.91
22.01	2333	-0.91
21.97	2335	-0.91
21.92	2337	-0.91
21.88	2339	-0.92
21.84	2342	-0.92
21.80	2344	-0.92
21.75	2346	-0.92
21.71	2348	-0.92
21.67	2350	-0.91
21.63	2352	-0.91
21.58	2354	-0.91
21.54	2356	-0.91
21.50	2358	-0.92
21.46	2360	-0.92
21.41	2363	-0.92
21.37	2365	-0.92
21.33	2367	-0.92
21.29	2369	-0.92
21.24	2371	-0.92
21.20	2373	-0.92
21.16	2375	-0.92
21.12	2377	-0.92
21.07	2379	-0.92
21.03	2381	-0.92
20.99	2384	-0.92
20.95	2386	-0.92
20.90	2388	-0.92
20.86	2390	-0.92
20.82	2392	-0.92
20.78	2394	-0.92
20.74	2396	-0.92
20.69	2398	-0.92
20.65	2400	-0.92
20.61	2402	-0.92
20.57	2405	-0.92
20.52	2407	-0.92
20.48	2409	-0.92
20.44	2411	-0.92
20.40	2413	-0.92
20.35	2415	-0.92
20.31	2417	-0.92
20.27	2419	-0.92
20.23	2421	-0.92
20.18	2423	-0.92
20.14	2426	-0.93
20.10	2428	-0.93
20.06	2430	-0.93
20.01	2432	-0.93
19.97	2434	-0.93
19.93	2436	-0.92
19.89	2438	-0.93
19.85	2440	-0.93
19.80	2442	-0.93
19.76	2444	-0.93
19.72	2447	-0.93
19.68	2449	-0.93
19.63	2451	-0.93
19.59	2453	-0.93
19.55	2455	-0.93
19.51	2457	-0.93
19.46	2459	-0.93
19.42	2461	-0.93
19.38	2463	-0.93
19.34	2465	-0.93
19.29	2468	-0.93
19.25	2470	-0.93
19.21	2472	-0.93
19.17	2474	-0.93
19.12	2476	-0.93
19.08	2478	-0.93
19.04	2480	-0.93
19.00	2482	-0.93
18.95	2484	-0.93
18.91	2486	-0.93
18.87	2489	-0.93
18.83	2491	-0.93
18.79	2493	-0.93
18.74	2495	-0.93
18.70	2497	-0.93
18.66	2499	-0.93
18.62	2501	-0.93
18.57	2503	-0.93
18.53	2505	-0.93
18.49	2507	-0.93
18.45	2510	-0.93
18.40	2512	-0.94
18.36	2514	-0.94
18.32	2516	-0.94
18.28	2518	-0.94
18.23	2520	-0.94
18.19	2522	-0.94
18.15	2524	-0.94
18.11	2526	-0.94
18.07	2528	-0.94
18.02	2531	-0.94
17.98	2533	-0.94
17.94	2535	-0.94
17.90	2537	-0.94
17.85	2539	-0.94
17.81	2541	-0.94
17.77	2543	-0.94
17.73	2545	-0.94
17.68	2547	-0.94
17.64	2549	-0.94
17.60	2552	-0.94
17.56	2554	-0.94
17.52	2556	-0.94
17.47	2558	-0.94
17.43	2560	-0.94
17.39	2562	-0.94
17.35	2564	-0.94
17.30	2566	-0.94
17.26	2568	-0.94
17.22	2570	-0.94
17.18	2573	-0.94
17.13	2575	-0.94
17.09	2577	-0.94
17.05	2579	-0.94
17.01	2581	-0.94
16.96	2583	-0.94
16.92	2585	-0.94
16.88	2587	-0.94
16.84	2589	-0.94
16.80	2591	-0.94
16.75	2594	-0.94
16.71	2596	-0.94
16.67	2598	-0.95
16.63	2600	-0.94
16.58	2602	-0.94
16.54	2604	-0.94
16.50	2606	-0.94
16.46	2608	-0.94
16.41	2610	-0.94
16.37	2612	-0.94
16.33	2615	-0.94
16.29	2617	-0.94
16.24	2619	-0.94
16.20	2621	-0.95
16.16	2623	-0.95
16.12	2625	-0.95
16.07	2627	-0.95
16.03	2629	-0.95
15.99	2631	-0.95
15.95	2633	-0.95
15.91	2636	-0.95
15.86	2638	-0.95
15.82	2640	-0.95
15.78	2642	-0.95
15.74	2644	-0.95
15.70	2646	-0.95
15.65	2648	-0.95
15.61	2650	-0.95
15.57	2652	-0.95
15.53	2654	-0.95
15.48	2657	-0.95
15.44	2659	-0.95
15.40	2661	-0.95
15.36	2663	-0.95
15.31	2665	-0.95
15.27	2667	-0.95
15.23	2669	-0.95
15.19	2671	-0.95
15.14	2673	-0.95
15.10	2675	-0.95
15.06	2678	-0.95
15.02	2680	-0.95
14.98	2682	-0.95
14.93	2684	-0.95
14.89	2686	-0.95
14.85	2688	-0.95
14.81	2690	-0.95
14.77	2692	-0.95
14.72	2694	-0.95
14.68	2696	-0.95
14.64	2699	-0.95
14.60	2701	-0.95
14.55	2703	-0.95
14.51	2705	-0.95
14.47	2707	-0.95
14.43	2709	-0.95
14.38	2711	-0.95
14.34	2713	-0.95
14.30	2715	-0.95
14.26	2717	-0.95
14.22	2720	-0.95
14.17	2722	-0.96
14.13	2724	-0.96
14.09	2726	-0.96
14.05	2728	-0.96
14.00	2730	-0.96
13.96	2732	-0.96
13.92	2734	-0.96
13.88	2736	-0.96
13.84	2738	-0.96
13.79	2741	-0.96
13.75	2743	-0.96
13.71	2745	-0.96
13.67	2747	-0.96
13.62	2749	-0.96
13.58	2751	-0.96
13.54	2753	-0.96
13.50	2755	-0.96
13.46	2757	-0.96
13.41	2759	-0.96
13.37	2762	-0.96
13.33	2764	-0.96
13.29	2766	-0.96
13.24	2768	-0.96
13.20	2770	-0.96
13.16	2772	-0.96
13.12	2774	-0.96
13.08	2776	-0.96
13.03	2778	-0.96
12.99	2780	-0.96
12.95	2783	-0.96
12.91	2785	-0.96
12.86	2787	-0.96
12.82	2789	-0.96
12.78	2791	-0.96
12.74	2793	-0.96
12.70	2795	-0.96
12.65	2797	-0.96
12.61	2799	-0.96
12.57	2801	-0.96
12.53	2804	-0.96
12.49	2806	-0.96
12.44	2808	-0.96
12.40	2810	-0.96
12.36	2812	-0.96
12.32	2814	-0.96
12.28	2816	-0.96
12.23	2818	-0.96
12.19	2820	-0.96
12.15	2822	-0.96
12.11	2825	-0.96
12.07	2827	-0.96
12.02	2829	-0.96
11.98	2831	-0.96
11.94	2833	-0.96
11.90	2835	-0.96
11.86	2837	-0.96
11.81	2839	-0.96
11.77	2841	-0.96
11.73	2843	-0.96
11.69	2846	-0.96
11.65	2848	-0.96
11.60	2850	-0.96
11.56	2852	-0.96
11.52	2854	-0.96
11.48	2856	-0.96
11.44	2858	-0.96
11.39	2860	-0.96
11.35	2862	-0.96
11.31	2864	-0.96
11.27	2867	-0.96
11.23	2869	-0.96
11.18	2871	-0.96
11.14	2873	-0.96
11.10	2875	-0.96
11.06	2877	-0.96
11.02	2879	-0.96
10.98	2881	-0.96
10.93	2883	-0.96
10.89	2885	-0.96
10.85	2888	-0.96
10.81	2890	-0.96
10.76	2892	-0.96
10.72	2894	-0.96
10.68	2896	-0.96
10.64	2898	-0.97
10.60	2900	-0.96
10.56	2902	-0.96
10.51	2904	-0.96
10.47	2906	-0.96
10.43	2909	-0.96
10.39	2911	-0.96
10.35	2913	-0.96
10.30	2915	-0.96
10.26	2917	-0.96
10.22	2919	-0.96
10.18	2921	-0.96
10.14	2923	-0.96
10.10	2925	-0.96
10.05	2927	-0.96
10.01	2930	-0.96
9.97	2932	-0.96
9.93	2934	-0.96
9.89	2936	-0.96
9.84	2938	-0.96
9.80	2940	-0.96
9.76	2942	-0.96
9.72	2944	-0.96
9.68	2946	-0.96
9.64	2948	-0.96
9.60	2951	-0.96
9.55	2953	-0.95
9.51	2955	-0.95
9.47	2957	-0.95
9.43	2959	-0.95
9.39	2961	-0.95
9.35	2963	-0.95
9.30	2965	-0.95
9.26	2967	-0.95
9.22	2969	-0.95
9.18	2972	-0.95
9.14	2974	-0.95
9.10	2976	-0.95
9.06	2978	-0.94
9.01	2980	-0.94
8.97	2982	-0.94
8.93	2984	-0.94
8.89	2986	-0.94
8.85	2988	-0.94
8.81	2990	-0.94
8.77	2993	-0.93
8.73	2995	-0.93
8.68	2997	-0.93
8.64	2999	-0.93
8.63	3000	-0.93