File: rawdata/empty_2
empty
Furnace temperature 	Time	HeatFlow
/°C	/s	/mW
7.70	0	-0.78
7.44	6	-0.78
6.95	12	-0.77
6.48	18	-0.76
6.11	24	-0.72
5.83	30	-0.68
5.62	36	-0.63
5.45	42	-0.58
5.33	48	-0.52
5.23	54	-0.47
5.15	60	-0.43
5.09	66	-0.38
5.05	72	-0.34
5.02	78	-0.30
5.00	84	-0.27
4.99	90	-0.24
4.98	96	-0.21
4.99	102	-0.18
5.00	108	-0.15
5.01	114	-0.13
5.03	120	-0.10
5.05	126	-0.08
5.08	132	-0.05
5.11	138	-0.03
5.14	144	-0.01
5.17	150	0.01
5.21	156	0.03
5.25	162	0.05
5.16	168	0.07
5.11	174	0.09
5.09	180	0.10
5.10	186	0.12
5.12	192	0.13
5.14	198	0.15
5.18	204	0.16
5.22	210	0.18
5.26	216	0.19
5.31	222	0.20
5.36	228	0.21
5.41	234	0.22
5.46	240	0.23
5.52	246	0.24
5.58	252	0.25
5.63	258	0.25
5.69	264	0.26
5.75	270	0.27
5.81	276	0.27
5.87	282	0.28
5.93	288	0.28
5.99	294	0.29
6.06	300	0.29
6.12	306	0.30
6.18	312	0.30
6.24	318	0.31
6.30	324	0.31
6.36	330	0.31
6.42	336	0.31
6.48	342	0.31
6.54	348	0.32
6.60	354	0.32
6.66	360	0.32
6.72	366	0.32
6.78	372	0.32
6.83	378	0.32
6.89	384	0.32
6.95	390	0.32
7.01	396	0.32
7.07	402	0.32
7.12	408	0.32
7.18	414	0.32
7.24	420	0.32
7.29	426	0.32
7.35	432	0.33
7.40	438	0.33
7.46	444	0.33
7.51	450	0.33
7.57	456	0.33
7.62	462	0.33
7.68	468	0.33
7.74	474	0.33
7.79	480	0.33
7.84	486	0.33
7.90	492	0.33
7.95	498	0.33
8.00	504	0.33
8.06	510	0.33
8.11	516	0.33
8.16	522	0.33
8.21	528	0.33
8.27	534	0.33
8.32	540	0.33
8.37	546	0.33
8.43	552	0.33
8.48	558	0.33
8.53	564	0.33
8.58	570	0.33
8.63	576	0.33
8.69	582	0.33
8.74	588	0.33
8.79	594	0.33
8.84	600	0.33
8.89	606	0.33
8.95	612	0.33
9.00	618	0.33
9.05	624	0.33
9.10	630	0.33
9.15	636	0.33
9.20	642	0.33
9.26	648	0.33
9.31	654	0.33
9.36	660	0.33
9.41	666	0.33
9.46	672	0.33
9.51	678	0.33
9.56	684	0.33
9.62	690	0.33
9.67	696	0.33
9.72	702	0.33
9.77	708	0.33
9.82	714	0.33
9.87	720	0.33
9.92	726	0.33
9.97	732	0.33
10.02	738	0.33
10.08	744	0.33
10.13	750	0.33
10.18	756	0.33
10.23	762	0.33
10.28	768	0.33
10.33	774	0.33
10.38	780	0.33
10.43	786	0.33
10.48	792	0.33
10.53	798	0.33
10.59	804	0.33
10.64	810	0.33
10.69	816	0.32
10.74	822	0.33
10.79	828	0.33
10.84	834	0.33
10.89	840	0.32
10.94	846	0.32
10.99	852	0.32
11.04	858	0.32
11.09	864	0.32
11.14	870	0.32
11.20	876	0.32
11.25	882	0.32
11.30	888	0.32
11.35	894	0.32
11.40	900	0.32
11.45	906	0.32
11.50	912	0.32
11.55	918	0.32
11.60	924	0.32
11.65	930	0.32
11.70	936	0.32
11.75	942	0.32
11.81	948	0.32
11.86	954	0.32
11.91	960	0.32
11.96	966	0.32
12.01	972	0.32
12.06	978	0.31
12.11	984	0.31
12.16	990	0.31
12.21	996	0.31
12.26	1002	0.31
12.31	1008	0.31
12.36	1014	0.31
12.41	1020	0.31
12.47	1026	0.31
12.52	1032	0.31
12.57	1038	0.31
12.62	1044	0.31
12.67	1050	0.30
12.72	1056	0.30
12.77	1062	0.30
12.82	1068	0.30
12.87	1074	0.30
12.92	1080	0.30
12.97	1086	0.30
13.02	1092	0.30
13.07	1098	0.30
13.13	1104	0.30
13.18	1110	0.29
13.23	1116	0.29
13.28	1122	0.29
13.33	1128	0.29
13.38	1134	0.29
13.43	1140	0.29
13.48	1146	0.29
13.53	1152	0.28
13.58	1158	0.28
13.63	1164	0.28
13.68	1170	0.28
13.73	1176	0.28
13.78	1182	0.27
13.83	1188	0.27
13.89	1194	0.27
13.94	1200	0.27
13.99	1206	0.27
14.04	1212	0.27
14.09	1218	0.27
14.14	1224	0.26
14.19	1230	0.26
14.24	1236	0.26
14.29	1242	0.26
14.34	1248	0.26
14.39	1254	0.25
14.44	1260	0.25
14.49	1266	0.25
14.54	1272	0.25
14.59	1278	0.25
14.65	1284	0.24
14.70	1290	0.24
14.75	1296	0.24
14.80	1302	0.24
14.85	1308	0.24
14.90	1314	0.23
14.95	1320	0.23
15.00	1326	0.23
15.05	1332	0.23
15.10	1338	0.23
15.15	1344	0.22
15.20	1350	0.22
15.25	1356	0.22
15.30	1362	0.22
15.36	1368	0.22
15.41	1374	0.21
15.46	1380	0.21
15.51	1386	0.21
15.56	1392	0.21
15.61	1398	0.21
15.66	1404	0.20
15.71	1410	0.20
15.76	1416	0.20
15.81	1422	0.20
15.86	1428	0.20
15.91	1434	0.20
15.96	1440	0.19
16.01	1446	0.19
16.06	1452	0.19
16.11	1458	0.19
16.17	1464	0.19
16.22	1470	0.19
16.27	1476	0.18
16.32	1482	0.18
16.37	1488	0.18
16.42	1494	0.18
16.47	1500	0.18
16.52	1506	0.17
16.57	1512	0.17
16.62	1518	0.17
16.67	1524	0.17
16.72	1530	0.17
16.77	1536	0.17
16.82	1542	0.17
16.87	1548	0.16
16.92	1554	0.16
16.98	1560	0.16
17.03	1566	0.16
17.08	1572	0.16
17.13	1578	0.16
17.18	1584	0.15
17.23	1590	0.15
17.28	1596	0.15
17.33	1602	0.15
17.38	1608	0.15
17.43	1614	0.15
17.48	1620	0.14
17.53	1626	0.14
17.58	1632	0.14
17.63	1638	0.14
17.68	1644	0.14
17.74	1650	0.14
17.79	1656	0.13
17.84	1662	0.13
17.89	1668	0.13
17.94	1674	0.13
17.99	1680	0.13
18.04	1686	0.13
18.09	1692	0.13
18.14	1698	0.12
18.19	1704	0.12
18.24	1710	0.12
18.29	1716	0.12
18.34	1722	0.12
18.39	1728	0.12
18.44	1734	0.11
18.50	1740	0.11
18.55	1746	0.11
18.60	1752	0.11
18.65	1758	0.11
18.70	1764	0.11
18.75	1770	0.11
18.80	1776	0.10
18.85	1782	0.10
18.90	1788	0.10
18.95	1794	0.10
19.00	1800	0.10
19.05	1806	0.10
19.10	1812	0.10
19.15	1818	0.09
19.20	1824	0.09
19.26	1830	0.09
19.31	1836	0.09
19.36	1842	0.09
19.41	1848	0.09
19.46	1854	0.08
19.51	1860	0.08
19.56	1866	0.08
19.61	1872	0.08
19.66	1878	0.08
19.71	1884	0.08
19.76	1890	0.08
19.81	1896	0.07
19.86	1902	0.07
19.91	1908	0.07
19.96	1914	0.07
20.02	1920	0.07
20.07	1926	0.07
20.12	1932	0.07
20.17	1938	0.06
20.22	1944	0.06
20.27	1950	0.06
20.32	1956	0.06
20.37	1962	0.06
20.42	1968	0.06
20.47	1974	0.05
20.52	1980	0.05
20.57	1986	0.05
20.62	1992	0.05
20.67	1998	0.05
20.72	2004	0.05
20.77	2010	0.04
20.82	2016	0.04
20.87	2022	0.04
20.92	2028	0.04
20.98	2034	0.04
21.03	2040	0.04
21.08	2046	0.03
21.13	2052	0.03
21.18	2058	0.03
21.23	2064	0.03
21.28	2070	0.03
21.33	2076	0.02
21.38	2082	0.02
21.43	2088	0.02
21.48	2094	0.02
21.53	2100	0.02
21.58	2106	0.02
21.63	2112	0.02
21.68	2118	0.01
21.73	2124	0.01
21.78	2130	0.01
21.84	2136	0.01
21.89	2142	0.01
21.94	2148	0.01
21.99	2154	0.00
22.04	2160	0.00
22.09	2166	0.00
22.14	2172	-0.00
22.19	2178	-0.00
22.24	2184	-0.00
22.29	2190	-0.01
22.34	2196	-0.01
22.39	2202	-0.01
22.44	2208	-0.01
22.50	2214	-0.01
22.55	2220	-0.02
22.60	2226	-0.02
22.65	2232	-0.02
22.70	2238	-0.02
22.75	2244	-0.02
22.80	2250	-0.02
22.85	2256	-0.03
22.90	2262	-0.03
22.95	2268	-0.03
23.00	2274	-0.03
23.05	2280	-0.03
23.10	2286	-0.03
23.15	2292	-0.04
23.20	2298	-0.04
23.25	2304	-0.04
23.30	2310	-0.04
23.35	2316	-0.04
23.40	2322	-0.05
23.46	2328	-0.05
23.51	2334	-0.05
23.56	2340	-0.05
23.61	2346	-0.05
23.66	2352	-0.06
23.71	2358	-0.06
23.76	2364	-0.06
23.81	2370	-0.06
23.86	2376	-0.06
23.91	2382	-0.07
23.96	2388	-0.07
24.01	2394	-0.07
24.06	2400	-0.07
24.11	2406	-0.07
24.16	2412	-0.07
24.22	2418	-0.08
24.27	2424	-0.08
24.32	2430	-0.08
24.37	2436	-0.08
24.42	2442	-0.09
24.47	2448	-0.09
24.52	2454	-0.09
24.57	2460	-0.09
24.62	2466	-0.09
24.67	2472	-0.09
24.72	2478	-0.10
24.77	2484	-0.10
24.82	2490	-0.10
24.87	2496	-0.10
24.92	2502	-0.10
24.98	2508	-0.11
25.03	2514	-0.11
25.08	2520	-0.11
25.13	2526	-0.11
25.18	2532	-0.11
25.23	2538	-0.12
25.28	2544	-0.12
25.33	2550	-0.12
25.38	2556	-0.12
25.43	2562	-0.12
25.48	2568	-0.13
25.53	2574	-0.13
25.58	2580	-0.13
25.63	2586	-0.13
25.68	2592	-0.14
25.74	2598	-0.14
25.79	2604	-0.14
25.84	2610	-0.14
25.89	2616	-0.15
25.94	2622	-0.15
25.99	2628	-0.15
26.04	2634	-0.15
26.09	2640	-0.15
26.14	2646	-0.16
26.19	2652	-0.16
26.24	2658	-0.16
26.29	2664	-0.16
26.34	2670	-0.16
26.39	2676	-0.17
26.44	2682	-0.17
26.49	2688	-0.17
26.54	2694	-0.17
26.59	2700	-0.18
26.65	2706	-0.18
26.70	2712	-0.18
26.75	2718	-0.18
26.80	2724	-0.19
26.85	2730	-0.19
26.90	2736	-0.19
26.95	2742	-0.19
27.00	2748	-0.19
27.05	2754	-0.20
27.10	2760	-0.20
27.15	2766	-0.20
27.20	2772	-0.20
27.25	2778	-0.21
27.30	2784	-0.21
27.36	2790	-0.21
27.41	2796	-0.21
27.46	2802	-0.22
27.51	2808	-0.22
27.56	2814	-0.22
27.61	2820	-0.22
27.66	2826	-0.22
27.71	2832	-0.23
27.76	2838	-0.23
27.81	2844	-0.23
27.86	2850	-0.23
27.91	2856	-0.24
27.96	2862	-0.24
28.01	2868	-0.24
28.06	2874	-0.24
28.11	2880	-0.25
28.16	2886	-0.25
28.22	2892	-0.25
28.27	2898	-0.25
28.32	2904	-0.26
28.37	2910	-0.26
28.42	2916	-0.26
28.47	2922	-0.26
28.52	2928	-0.26
28.57	2934	-0.27
28.62	2940	-0.27
28.67	2946	-0.27
28.72	2952	-0.28
28.77	2958	-0.28
28.82	2964	-0.28
28.87	2970	-0.28
28.92	2976	-0.29
28.97	2982	-0.29
29.02	2988	-0.29
29.08	2994	-0.29
29.13	3000	-0.30
29.18	3006	-0.30
29.23	3012	-0.30
29.28	3018	-0.30
29.33	3024	-0.31
29.38	3030	-0.31
29.43	3036	-0.31
29.48	3042	-0.31
29.53	3048	-0.31
29.58	3054	-0.32
29.63	3060	-0.32
29.68	3066	-0.33
29.73	3072	-0.33
29.78	3078	-0.33
29.84	3084	-0.34
29.89	3090	-0.34
29.94	3096	-0.34
29.99	3102	-0.34
30.04	3108	-0.34
30.09	3114	-0.35
30.14	3120	-0.35
30.19	3126	-0.35
30.24	3132	-0.36
30.29	3138	-0.36
30.34	3144	-0.36
30.39	3150	-0.36
30.44	3156	-0.37
30.49	3162	-0.37
30.54	3168	-0.37
30.59	3174	-0.37
30.65	3180	-0.38
30.70	3186	-0.38
30.75	3192	-0.38
30.80	3198	-0.39
30.86	3204	-0.39
30.91	3210	-0.39
30.96	3216	-0.39
31.00	3222	-0.40
31.05	3228	-0.40
31.10	3234	-0.40
31.15	3240	-0.40
31.20	3246	-0.41
31.25	3252	-0.41
31.30	3258	-0.41
31.35	3264	-0.42
31.40	3270	-0.42
31.45	3276	-0.42
31.51	3282	-0.43
31.55	3288	-0.43
31.60	3294	-0.43
31.66	3300	-0.43
31.71	3306	-0.44
31.76	3312	-0.44
31.81	3318	-0.44
31.86	3324	-0.45
31.91	3330	-0.45
31.96	3336	-0.45
32.01	3342	-0.46
32.06	3348	-0.46
32.11	3354	-0.46
32.16	3360	-0.46
32.21	3366	-0.47
32.26	3372	-0.47
32.31	3378	-0.47
32.36	3384	-0.48
32.42	3390	-0.48
32.47	3396	-0.48
32.52	3402	-0.49
32.57	3408	-0.49
32.62	3414	-0.49
32.67	3420	-0.49
32.72	3426	-0.50
32.77	3432	-0.50
32.82	3438	-0.50
32.87	3444	-0.51
32.92	3450	-0.51
32.97	3456	-0.51
33.02	3462	-0.52
33.07	3468	-0.52
33.12	3474	-0.52
33.18	3480	-0.53
33.23	3486	-0.53
33.28	3492	-0.53
33.33	3498	-0.53
33.38	3504	-0.54
33.43	3510	-0.54
33.48	3516	-0.54
33.53	3522	-0.55
33.58	3528	-0.55
33.63	3534	-0.55
33.68	3540	-0.56
33.73	3546	-0.56
33.79	3552	-0.56
33.83	3558	-0.57
33.88	3564	-0.57
33.93	3570	-0.57
33.99	3576	-0.58
34.04	3582	-0.58
34.09	3588	-0.58
34.14	3594	-0.58
34.19	3600	-0.58
34.24	3606	-0.59
34.29	3612	-0.59
34.34	3618	-0.59
34.39	3624	-0.60
34.44	3630	-0.60
34.49	3636	-0.61
34.54	3642	-0.61
34.59	3648	-0.61
34.64	3654	-0.62
34.69	3660	-0.62
34.74	3666	-0.63
34.79	3672	-0.63
34.85	3678	-0.63
34.90	3684	-0.63
34.95	3690	-0.63
35.00	3696	-0.64
35.05	3702	-0.64
35.10	3708	-0.65
35.15	3714	-0.65
35.20	3720	-0.65
35.25	3726	-0.65
35.30	3732	-0.66
35.35	3738	-0.66
35.41	3744	-0.66
35.47	3750	-0.67
35.51	3756	-0.67
35.56	3762	-0.67
35.61	3768	-0.68
35.67	3774	-0.68
35.72	3780	-0.68
35.76	3786	-0.69
35.81	3792	-0.69
35.87	3798	-0.69
35.92	3804	-0.70
35.96	3810	-0.70
36.01	3816	-0.70
36.06	3822	-0.71
36.11	3828	-0.71
36.17	3834	-0.71
36.22	3840	-0.72
36.27	3846	-0.72
36.32	3852	-0.72
36.37	3858	-0.72
36.42	3864	-0.73
36.47	3870	-0.73
36.52	3876	-0.73
36.57	3882	-0.74
36.62	3888	-0.74
36.67	3894	-0.74
36.72	3900	-0.74
36.77	3906	-0.75
36.82	3912	-0.75
36.88	3918	-0.75
36.92	3924	-0.75
36.97	3930	-0.76
37.02	3936	-0.76
37.08	3942	-0.76
37.13	3948	-0.76
37.17	3954	-0.77
37.23	3960	-0.77
37.28	3966	-0.77
37.33	3972	-0.77
37.38	3978	-0.77
37.43	3984	-0.77
37.48	3990	-0.77
37.52	3996	-0.78
37.58	4002	-0.78
37.63	4008	-0.78
37.68	4014	-0.78
37.73	4020	-0.78
37.78	4026	-0.78
37.83	4032	-0.78
37.88	4038	-0.78
37.93	4044	-0.78
37.98	4050	-0.78
38.03	4056	-0.78
38.09	4062	-0.77
38.14	4068	-0.77
38.19	4074	-0.76
38.24	4080	-0.76
38.29	4086	-0.75
38.34	4092	-0.74
38.39	4098	-0.73
38.44	4104	-0.72
38.49	4110	-0.70
38.54	4116	-0.68
38.59	4122	-0.65
38.64	4128	-0.62
38.69	4134	-0.58
38.74	4140	-0.55
38.79	4146	-0.50
38.84	4152	-0.46
38.90	4158	-0.41
38.95	4164	-0.37
39.00	4170	-0.32
39.05	4176	-0.28
39.10	4182	-0.24
39.15	4188	-0.21
39.20	4194	-0.17
39.25	4200	-0.14
39.30	4206	-0.11
39.35	4212	-0.09
39.41	4218	-0.06
39.46	4224	-0.04
39.51	4230	-0.02
39.56	4236	-0.01
39.61	4242	0.01
39.66	4248	0.03
39.71	4254	0.04
39.76	4260	0.05
39.81	4266	0.06
39.86	4272	0.07
39.91	4278	0.08
39.96	4284	0.09
40.01	4290	0.09
40.06	4296	0.10
40.11	4302	0.11
40.16	4308	0.11
40.21	4314	0.12
40.26	4320	0.12
40.31	4326	0.13
40.36	4332	0.13
40.41	4338	0.13
40.46	4344	0.14
40.51	4350	0.14
40.57	4356	0.15
40.62	4362	0.15
40.67	4368	0.15
40.72	4374	0.15
40.77	4380	0.16
40.82	4386	0.16
40.87	4392	0.16
40.92	4398	0.16
40.97	4404	0.17
41.02	4410	0.17
41.07	4416	0.17
41.12	4422	0.17
41.17	4428	0.17
41.22	4434	0.18
41.27	4440	0.18
41.32	4446	0.18
41.38	4452	0.18
41.42	4458	0.19
41.48	4464	0.19
41.53	4470	0.19
41.58	4476	0.19
41.63	4482	0.19
41.68	4488	0.19
41.73	4494	0.20
41.78	4500	0.20
41.83	4506	0.20
41.88	4512	0.20
41.93	4518	0.20
41.98	4524	0.20
42.03	4530	0.20
42.09	4536	0.20
42.14	4542	0.20
42.19	4548	0.21
42.24	4554	0.21
42.29	4560	0.21
42.34	4566	0.21
42.39	4572	0.21
42.44	4578	0.21
42.49	4584	0.21
42.54	4590	0.21
42.59	4596	0.21
42.64	4602	0.22
42.69	4608	0.22
42.74	4614	0.22
42.79	4620	0.22
42.84	4626	0.22
42.89	4632	0.22
42.94	4638	0.22
42.99	4644	0.22
43.04	4650	0.22
43.09	4656	0.22
43.15	4662	0.22
43.20	4668	0.22
43.25	4674	0.22
43.30	4680	0.22
43.35	4686	0.23
43.40	4692	0.22
43.45	4698	0.23
43.50	4704	0.23
43.55	4710	0.23
43.60	4716	0.23
43.65	4722	0.23
43.70	4728	0.23
43.76	4734	0.23
43.80	4740	0.23
43.85	4746	0.23
43.91	4752	0.23
43.96	4758	0.23
44.00	4764	0.23
44.06	4770	0.23
44.11	4776	0.23
44.16	4782	0.23
44.21	4788	0.23
44.26	4794	0.23
44.31	4800	0.23
44.36	4806	0.23
44.41	4812	0.23
44.46	4818	0.23
44.51	4824	0.23
44.56	4830	0.23
44.61	4836	0.23
44.67	4842	0.24
44.71	4848	0.24
44.76	4854	0.24
44.81	4860	0.24
44.87	4866	0.24
44.92	4872	0.24
44.97	4878	0.24
45.02	4884	0.24
45.07	4890	0.24
45.12	4896	0.24
45.17	4902	0.24
45.22	4908	0.24
45.27	4914	0.24
45.32	4920	0.24
45.37	4926	0.24
45.42	4932	0.24
45.47	4938	0.24
45.52	4944	0.24
45.58	4950	0.24
45.63	4956	0.24
45.67	4962	0.24
45.73	4968	0.24
45.78	4974	0.24
45.83	4980	0.24
45.88	4986	0.24
45.93	4992	0.24
45.98	4998	0.24
46.03	5004	0.24
46.08	5010	0.24
46.13	5016	0.24
46.18	5022	0.24
46.23	5028	0.24
46.28	5034	0.24
46.34	5040	0.24
46.39	5046	0.24
46.43	5052	0.24
46.48	5058	0.24
46.53	5064	0.24
46.59	5070	0.24
46.64	5076	0.24
46.69	5082	0.24
46.74	5088	0.24
46.79	5094	0.24
46.84	5100	0.24
46.89	5106	0.24
46.94	5112	0.24
46.99	5118	0.24
47.04	5124	0.24
47.09	5130	0.24
47.14	5136	0.24
47.19	5142	0.24
47.24	5148	0.24
47.30	5154	0.25
47.35	5160	0.24
47.40	5166	0.24
47.45	5172	0.24
47.50	5178	0.24
47.55	5184	0.25
47.60	5190	0.25
47.65	5196	0.25
47.70	5202	0.24
47.75	5208	0.24
47.80	5214	0.24
47.85	5220	0.24
47.90	5226	0.25
47.95	5232	0.24
48.00	5238	0.24
48.05	5244	0.25
48.10	5250	0.25
48.15	5256	0.25
48.21	5262	0.25
48.26	5268	0.25
48.31	5274	0.25
48.36	5280	0.25
48.41	5286	0.25
48.46	5292	0.25
48.51	5298	0.25
48.56	5304	0.24
48.61	5310	0.25
48.66	5316	0.25
48.71	5322	0.25
48.76	5328	0.25
48.81	5334	0.25
48.86	5340	0.25
48.92	5346	0.25
48.97	5352	0.25
49.01	5358	0.25
49.06	5364	0.25
49.12	5370	0.25
49.17	5376	0.25
49.22	5382	0.24
49.27	5388	0.25
49.32	5394	0.25
49.37	5400	0.25
49.42	5406	0.25
49.47	5412	0.25
49.52	5418	0.25
49.57	5424	0.25
49.62	5430	0.25
49.67	5436	0.25
49.72	5442	0.25
49.78	5448	0.25
49.82	5454	0.25
49.88	5460	0.25
49.93	5466	0.25
49.98	5472	0.25
50.03	5478	0.25
50.08	5484	0.25
50.13	5490	0.25
50.18	5496	0.25
50.23	5502	0.25
50.28	5508	0.25
50.33	5514	0.25
50.38	5520	0.25
50.43	5526	0.25
50.48	5532	0.25
50.53	5538	0.25
50.58	5544	0.25
50.63	5550	0.25
50.69	5556	0.25
50.73	5562	0.25
50.79	5568	0.25
50.84	5574	0.25
50.89	5580	0.25
50.94	5586	0.25
50.99	5592	0.25
51.04	5598	0.25
51.09	5604	0.25
51.14	5610	0.25
51.19	5616	0.25
51.24	5622	0.25
51.29	5628	0.25
51.34	5634	0.25
51.39	5640	0.25
51.44	5646	0.25
51.49	5652	0.25
51.54	5658	0.25
51.60	5664	0.25
51.65	5670	0.25
51.70	5676	0.25
51.75	5682	0.25
51.80	5688	0.25
51.85	5694	0.25
51.90	5700	0.25
51.95	5706	0.25
52.00	5712	0.25
52.05	5718	0.25
52.10	5724	0.25
52.15	5730	0.25
52.20	5736	0.25
52.25	5742	0.25
52.31	5748	0.25
52.36	5754	0.25
52.40	5760	0.25
52.46	5766	0.25
52.51	5772	0.25
52.56	5778	0.25
52.61	5784	0.25
52.66	5790	0.25
52.71	5796	0.25
52.76	5802	0.25
52.81	5808	0.25
52.86	5814	0.25
52.91	5820	0.25
52.96	5826	0.25
53.01	5832	0.25
53.06	5838	0.25
53.12	5844	0.25
53.17	5850	0.25
53.22	5856	0.25
53.27	5862	0.25
53.32	5868	0.25
53.37	5874	0.25
53.42	5880	0.25
53.47	5886	0.25
53.52	5892	0.25
53.57	5898	0.25
53.62	5904	0.24
53.67	5910	0.25
53.72	5916	0.25
53.77	5922	0.24
53.82	5928	0.25
53.87	5934	0.25
53.92	5940	0.25
53.97	5946	0.25
54.03	5952	0.25
54.08	5958	0.25
54.13	5964	0.25
54.18	5970	0.25
54.23	5976	0.25
54.28	5982	0.25
54.33	5988	0.25
54.38	5994	0.24
54.43	6000	0.24
54.48	6006	0.25
54.53	6012	0.25
54.58	6018	0.25
54.63	6024	0.25
54.68	6030	0.25
54.73	6036	0.25
54.78	6042	0.25
54.83	6048	0.25
54.88	6054	0.25
54.93	6060	0.25
54.99	6066	0.25
55.04	6072	0.25
55.09	6078	0.25
55.14	6084	0.25
55.19	6090	0.25
55.24	6096	0.25
55.29	6102	0.25
55.34	6108	0.25
55.39	6114	0.25
55.44	6120	0.25
55.49	6126	0.25
55.54	6132	0.25
55.59	6138	0.24
55.64	6144	0.25
55.69	6150	0.25
55.74	6156	0.24
55.80	6162	0.25
55.85	6168	0.25
55.90	6174	0.25
55.95	6180	0.25
56.00	6186	0.25
56.05	6192	0.25
56.10	6198	0.24
56.15	6204	0.25
56.20	6210	0.24
56.25	6216	0.24
56.30	6222	0.24
56.35	6228	0.24
56.40	6234	0.24
56.45	6240	0.24
56.50	6246	0.24
56.55	6252	0.24
56.61	6258	0.24
56.66	6264	0.24
56.71	6270	0.24
56.76	6276	0.24
56.81	6282	0.25
56.86	6288	0.25
56.91	6294	0.25
56.96	6300	0.25
57.01	6306	0.25
57.06	6312	0.24
57.11	6318	0.24
57.16	6324	0.24
57.22	6330	0.24
57.26	6336	0.24
57.31	6342	0.24
57.37	6348	0.24
57.42	6354	0.24
57.47	6360	0.24
57.52	6366	0.24
57.57	6372	0.24
57.62	6378	0.24
57.67	6384	0.24
57.72	6390	0.24
57.77	6396	0.24
57.82	6402	0.24
57.87	6408	0.24
57.92	6414	0.24
57.97	6420	0.24
58.02	6426	0.24
58.08	6432	0.24
58.13	6438	0.24
58.18	6444	0.24
58.23	6450	0.24
58.28	6456	0.24
58.33	6462	0.24
58.38	6468	0.24
58.43	6474	0.24
58.48	6480	0.24
58.53	6486	0.24
58.58	6492	0.24
58.63	6498	0.24
58.68	6504	0.24
58.73	6510	0.24
58.78	6516	0.24
58.83	6522	0.24
58.88	6528	0.24
58.93	6534	0.24
58.99	6540	0.24
59.04	6546	0.24
59.09	6552	0.24
59.14	6558	0.24
59.19	6564	0.24
59.24	6570	0.24
59.29	6576	0.24
59.34	6582	0.24
59.39	6588	0.24
59.44	6594	0.24
59.49	6600	0.24
59.54	6606	0.24
59.59	6612	0.24
59.64	6618	0.24
59.69	6624	0.24
59.74	6630	0.24
59.80	6636	0.24
59.84	6642	0.24
59.90	6648	0.24
59.95	6654	0.24
60.00	6660	0.24
60.05	6666	0.24
60.10	6672	0.24
60.15	6678	0.24
60.20	6684	0.24
60.25	6690	0.24
60.30	6696	0.24
60.35	6702	0.24
60.40	6708	0.24
60.45	6714	0.24
60.50	6720	0.24
60.55	6726	0.24
60.60	6732	0.24
60.65	6738	0.24
60.70	6744	0.24
60.75	6750	0.24
60.81	6756	0.24
60.86	6762	0.24
60.91	6768	0.24
60.96	6774	0.24
61.01	6780	0.24
61.06	6786	0.24
61.11	6792	0.24
61.16	6798	0.24
61.21	6804	0.24
61.26	6810	0.24
61.31	6816	0.24
61.36	6822	0.24
61.41	6828	0.24
61.47	6834	0.24
61.51	6840	0.24
61.57	6846	0.24
61.62	6852	0.24
61.67	6858	0.24
61.72	6864	0.23
61.77	6870	0.24
61.82	6876	0.23
61.87	6882	0.23
61.92	6888	0.24
61.97	6894	0.24
62.02	6900	0.24
62.07	6906	0.24
62.12	6912	0.23
62.17	6918	0.23
62.22	6924	0.23
62.27	6930	0.23
62.32	6936	0.23
62.37	6942	0.23
62.42	6948	0.23
62.48	6954	0.23
62.53	6960	0.23
62.58	6966	0.23
62.63	6972	0.23
62.68	6978	0.23
62.73	6984	0.23
62.78	6990	0.23
62.83	6996	0.23
62.88	7002	0.23
62.93	7008	0.23
62.98	7014	0.23
63.03	7020	0.23
63.08	7026	0.23
63.13	7032	0.23
63.18	7038	0.23
63.24	7044	0.23
63.29	7050	0.23
63.34	7056	0.23
63.39	7062	0.23
63.44	7068	0.23
63.49	7074	0.23
63.54	7080	0.23
63.59	7086	0.23
63.64	7092	0.23
63.69	7098	0.23
63.74	7104	0.23
63.79	7110	0.23
63.84	7116	0.23
63.89	7122	0.23
63.94	7128	0.23
64.00	7134	0.23
64.05	7140	0.23
64.09	7146	0.23
64.14	7152	0.23
64.20	7158	0.23
64.25	7164	0.23
64.30	7170	0.23
64.35	7176	0.23
64.40	7182	0.23
64.45	7188	0.23
64.50	7194	0.23
64.55	7200	0.23