File: rawdata/empty_3
empty
Furnace temperature 	Time	HeatFlow
/°C	/s	/mW
64.81	0	0.23
64.93	2	0.23
65.24	4	0.23
65.69	6	0.23
66.23	8	0.22
66.75	11	0.21
67.20	13	0.20
67.54	15	0.18
67.75	17	0.16
67.86	19	0.14
67.89	21	0.12
67.88	23	0.09
67.86	25	0.07
67.84	27	0.05
67.83	29	0.03
67.82	32	0.01
67.83	34	-0.00
67.84	36	-0.02
67.85	38	-0.03
67.85	40	-0.05
67.84	42	-0.06
67.83	44	-0.07
67.81	46	-0.08
67.78	48	-0.09
67.76	50	-0.10
67.73	53	-0.10
67.71	55	-0.11
67.69	57	-0.11
67.66	59	-0.11
67.64	61	-0.12
67.61	63	-0.12
67.59	65	-0.12
67.56	67	-0.12
67.53	69	-0.12
67.50	71	-0.12
67.47	74	-0.12
67.44	76	-0.12
67.40	78	-0.12
67.37	80	-0.12
67.34	82	-0.12
67.31	84	-0.12
67.28	86	-0.12
67.24	88	-0.12
67.21	90	-0.12
67.17	92	-0.12
67.14	95	-0.12
67.10	97	-0.12
67.07	99	-0.12
67.03	101	-0.12
66.99	103	-0.12
66.96	105	-0.12
66.92	107	-0.12
66.88	109	-0.12
66.85	111	-0.12
66.81	113	-0.13
66.77	116	-0.13
66.73	118	-0.13
66.70	120	-0.13
66.66	122	-0.13
66.62	124	-0.14
66.58	126	-0.14
66.54	128	-0.14
66.50	130	-0.15
66.46	132	-0.15
66.42	134	-0.15
66.38	137	-0.16
66.35	139	-0.16
66.31	141	-0.16
66.27	143	-0.17
66.23	145	-0.18
66.19	147	-0.18
66.15	149	-0.18
66.10	151	-0.19
66.06	153	-0.20
66.02	155	-0.20
65.98	158	-0.21
65.94	160	-0.21
65.90	162	-0.22
65.90	164	-0.22
65.91	166	-0.23
65.90	168	-0.23
65.88	170	-0.24
65.84	172	-0.25
65.80	174	-0.25
65.74	176	-0.26
65.69	179	-0.27
65.64	181	-0.27
65.60	183	-0.28
65.57	185	-0.28
65.54	187	-0.29
65.51	189	-0.30
65.47	191	-0.30
65.44	193	-0.31
65.40	195	-0.32
65.35	197	-0.32
65.31	200	-0.33
65.26	202	-0.34
65.22	204	-0.34
65.18	206	-0.35
65.14	208	-0.36
65.10	210	-0.36
65.06	212	-0.37
65.02	214	-0.37
64.98	216	-0.38
64.94	218	-0.38
64.90	221	-0.39
64.85	223	-0.40
64.81	225	-0.40
64.77	227	-0.41
64.72	229	-0.41
64.68	231	-0.41
64.64	233	-0.42
64.60	235	-0.43
64.55	237	-0.43
64.51	239	-0.44
64.47	242	-0.44
64.43	244	-0.45
64.38	246	-0.45
64.34	248	-0.46
64.29	250	-0.46
64.25	252	-0.47
64.21	254	-0.47
64.16	256	-0.48
64.12	258	-0.48
64.08	260	-0.49
64.03	263	-0.49
63.99	265	-0.50
63.95	267	-0.50
63.90	269	-0.51
63.86	271	-0.51
63.81	273	-0.51
63.77	275	-0.52
63.73	277	-0.52
63.68	279	-0.53
63.64	281	-0.54
63.60	284	-0.54
63.55	286	-0.54
63.51	288	-0.55
63.47	290	-0.55
63.42	292	-0.56
63.38	294	-0.56
63.33	296	-0.56
63.29	298	-0.57
63.25	300	-0.57
63.20	302	-0.58
63.16	305	-0.58
63.12	307	-0.59
63.07	309	-0.59
63.03	311	-0.59
62.99	313	-0.60
62.94	315	-0.60
62.90	317	-0.60
62.85	319	-0.61
62.81	321	-0.61
62.77	323	-0.61
62.72	326	-0.61
62.68	328	-0.62
62.64	330	-0.62
62.59	332	-0.62
62.55	334	-0.63
62.51	336	-0.63
62.46	338	-0.63
62.42	340	-0.63
62.37	342	-0.64
62.33	344	-0.64
62.29	347	-0.65
62.24	349	-0.65
62.20	351	-0.65
62.16	353	-0.65
62.11	355	-0.65
62.07	357	-0.66
62.02	359	-0.66
61.98	361	-0.66
61.94	363	-0.66
61.89	365	-0.67
61.85	368	-0.67
61.81	370	-0.67
61.76	372	-0.68
61.72	374	-0.68
61.68	376	-0.68
61.63	378	-0.68
61.59	380	-0.69
61.54	382	-0.69
61.50	384	-0.69
61.46	386	-0.69
61.41	389	-0.69
61.37	391	-0.69
61.33	393	-0.69
61.29	395	-0.70
61.24	397	-0.70
61.20	399	-0.70
61.16	401	-0.70
61.11	403	-0.70
61.07	405	-0.71
61.03	407	-0.71
60.98	410	-0.71
60.94	412	-0.71
60.90	414	-0.71
60.85	416	-0.71
60.81	418	-0.71
60.77	420	-0.71
60.72	422	-0.71
60.68	424	-0.71
60.64	426	-0.71
60.59	428	-0.71
60.55	431	-0.71
60.50	433	-0.71
60.46	435	-0.72
60.42	437	-0.72
60.37	439	-0.72
60.33	441	-0.72
60.29	443	-0.72
60.24	445	-0.72
60.20	447	-0.72
60.16	449	-0.72
60.11	452	-0.72
60.07	454	-0.73
60.03	456	-0.73
59.99	458	-0.73
59.94	460	-0.73
59.90	462	-0.73
59.86	464	-0.73
59.81	466	-0.73
59.77	468	-0.73
59.73	470	-0.73
59.68	473	-0.73
59.64	475	-0.73
59.60	477	-0.73
59.56	479	-0.73
59.51	481	-0.73
59.47	483	-0.73
59.43	485	-0.73
59.38	487	-0.73
59.34	489	-0.73
59.30	491	-0.73
59.26	494	-0.73
59.21	496	-0.73
59.17	498	-0.73
59.13	500	-0.73
59.08	502	-0.73
59.04	504	-0.73
59.00	506	-0.74
58.96	508	-0.74
58.91	510	-0.73
58.87	512	-0.73
58.83	515	-0.73
58.78	517	-0.73
58.74	519	-0.73
58.70	521	-0.73
58.66	523	-0.73
58.61	525	-0.74
58.57	527	-0.74
58.53	529	-0.74
58.49	531	-0.74
58.44	533	-0.74
58.40	536	-0.74
58.36	538	-0.74
58.31	540	-0.74
58.27	542	-0.74
58.23	544	-0.74
58.19	546	-0.74
58.14	548	-0.74
58.10	550	-0.74
58.06	552	-0.74
58.01	554	-0.73
57.97	557	-0.73
57.93	559	-0.74
57.89	561	-0.74
57.84	563	-0.74
57.80	565	-0.74
57.76	567	-0.74
57.71	569	-0.74
57.67	571	-0.74
57.63	573	-0.74
57.59	575	-0.74
57.54	578	-0.74
57.50	580	-0.74
57.46	582	-0.74
57.42	584	-0.74
57.37	586	-0.74
57.33	588	-0.74
57.29	590	-0.74
57.25	592	-0.74
57.20	594	-0.74
57.16	596	-0.74
57.12	599	-0.74
57.07	601	-0.74
57.03	603	-0.74
56.99	605	-0.74
56.95	607	-0.74
56.90	609	-0.74
56.86	611	-0.74
56.82	613	-0.74
56.78	615	-0.74
56.73	617	-0.74
56.69	620	-0.74
56.65	622	-0.74
56.61	624	-0.74
56.56	626	-0.74
56.52	628	-0.74
56.48	630	-0.74
56.43	632	-0.74
56.39	634	-0.74
56.35	636	-0.74
56.31	638	-0.74
56.26	641	-0.74
56.22	643	-0.74
56.18	645	-0.74
56.14	647	-0.74
56.09	649	-0.74
56.05	651	-0.74
56.01	653	-0.74
55.97	655	-0.74
55.92	657	-0.74
55.88	659	-0.74
55.84	662	-0.74
55.80	664	-0.74
55.75	666	-0.74
55.71	668	-0.74
55.67	670	-0.74
55.62	672	-0.74
55.58	674	-0.74
55.54	676	-0.74
55.50	678	-0.74
55.45	680	-0.74
55.41	683	-0.74
55.37	685	-0.74
55.33	687	-0.74
55.28	689	-0.74
55.24	691	-0.74
55.20	693	-0.74
55.16	695	-0.74
55.11	697	-0.74
55.07	699	-0.74
55.03	701	-0.74
54.99	704	-0.74
54.94	706	-0.74
54.90	708	-0.74
54.86	710	-0.74
54.82	712	-0.74
54.77	714	-0.74
54.73	716	-0.74
54.69	718	-0.74
54.64	720	-0.74
54.60	722	-0.74
54.56	725	-0.74
54.52	727	-0.74
54.48	729	-0.74
54.43	731	-0.74
54.39	733	-0.74
54.35	735	-0.74
54.30	737	-0.74
54.26	739	-0.74
54.22	741	-0.74
54.18	743	-0.74
54.13	746	-0.74
54.09	748	-0.74
54.05	750	-0.74
54.01	752	-0.74
53.96	754	-0.74
53.92	756	-0.74
53.88	758	-0.74
53.84	760	-0.74
53.79	762	-0.74
53.75	764	-0.74
53.71	767	-0.74
53.67	769	-0.74
53.62	771	-0.74
53.58	773	-0.74
53.54	775	-0.74
53.50	777	-0.74
53.45	779	-0.74
53.41	781	-0.74
53.37	783	-0.74
53.33	785	-0.74
53.28	788	-0.74
53.24	790	-0.74
53.20	792	-0.74
53.16	794	-0.74
53.11	796	-0.74
53.07	798	-0.74
53.03	800	-0.75
52.98	802	-0.74
52.94	804	-0.74
52.90	806	-0.74
52.86	809	-0.75
52.81	811	-0.75
52.77	813	-0.74
52.73	815	-0.74
52.69	817	-0.74
52.64	819	-0.74
52.60	821	-0.74
52.56	823	-0.75
52.52	825	-0.74
52.47	827	-0.74
52.43	830	-0.74
52.39	832	-0.75
52.35	834	-0.75
52.30	836	-0.75
52.26	838	-0.74
52.22	840	-0.74
52.18	842	-0.74
52.13	844	-0.74
52.09	846	-0.74
52.05	848	-0.74
52.01	851	-0.74
51.96	853	-0.74
51.92	855	-0.74
51.88	857	-0.74
51.84	859	-0.74
51.79	861	-0.74
51.75	863	-0.74
51.71	865	-0.74
51.67	867	-0.74
51.62	869	-0.74
51.58	872	-0.74
51.54	874	-0.74
51.50	876	-0.74
51.45	878	-0.74
51.41	880	-0.74
51.37	882	-0.74
51.33	884	-0.74
51.28	886	-0.74
51.24	888	-0.74
51.20	890	-0.74
51.16	893	-0.74
51.11	895	-0.74
51.07	897	-0.74
51.03	899	-0.75
50.99	901	-0.75
50.94	903	-0.75
50.90	905	-0.75
50.86	907	-0.75
50.82	909	-0.74
50.77	911	-0.75
50.73	914	-0.75
50.69	916	-0.75
50.65	918	-0.75
50.60	920	-0.75
50.56	922	-0.75
50.52	924	-0.75
50.48	926	-0.75
50.43	928	-0.75
50.39	930	-0.75
50.35	932	-0.74
50.30	935	-0.75
50.26	937	-0.75
50.22	939	-0.75
50.18	941	-0.75
50.14	943	-0.75
50.09	945	-0.75
50.05	947	-0.75
50.01	949	-0.75
49.97	951	-0.75
49.92	953	-0.75
49.88	956	-0.75
49.84	958	-0.75
49.79	960	-0.75
49.75	962	-0.75
49.71	964	-0.75
49.67	966	-0.75
49.62	968	-0.75
49.58	970	-0.75
49.54	972	-0.75
49.50	974	-0.75
49.45	977	-0.75
49.41	979	-0.75
49.37	981	-0.75
49.33	983	-0.76
49.28	985	-0.75
49.24	987	-0.75
49.20	989	-0.75
49.16	991	-0.75
49.12	993	-0.75
49.07	995	-0.75
49.03	998	-0.75
48.99	1000	-0.75
48.94	1002	-0.75
48.90	1004	-0.75
48.86	1006	-0.75
48.82	1008	-0.75
48.77	1010	-0.75
48.73	1012	-0.75
48.69	1014	-0.75
48.65	1016	-0.75
48.60	1019	-0.75
48.56	1021	-0.75
48.52	1023	-0.75
48.48	1025	-0.75
48.43	1027	-0.75
48.39	1029	-0.76
48.35	1031	-0.75
48.31	1033	-0.75
48.26	1035	-0.75
48.22	1037	-0.75
48.18	1040	-0.75
48.14	1042	-0.76
48.09	1044	-0.76
48.05	1046	-0.76
48.01	1048	-0.75
47.97	1050	-0.76
47.92	1052	-0.76
47.88	1054	-0.76
47.84	1056	-0.76
47.80	1058	-0.76
47.75	1061	-0.76
47.71	1063	-0.76
47.67	1065	-0.76
47.63	1067	-0.76
47.58	1069	-0.76
47.54	1071	-0.76
47.50	1073	-0.76
47.46	1075	-0.76
47.41	1077	-0.76
47.37	1079	-0.76
47.33	1082	-0.76
47.29	1084	-0.76
47.24	1086	-0.76
47.20	1088	-0.76
47.16	1090	-0.76
47.12	1092	-0.76
47.07	1094	-0.76
47.03	1096	-0.76
46.99	1098	-0.76
46.95	1100	-0.76
46.90	1103	-0.76
46.86	1105	-0.76
46.82	1107	-0.76
46.78	1109	-0.76
46.73	1111	-0.76
46.69	1113	-0.76
46.65	1115	-0.76
46.60	1117	-0.76
46.56	1119	-0.76
46.52	1121	-0.77
46.48	1124	-0.77
46.44	1126	-0.77
46.39	1128	-0.77
46.35	1130	-0.77
46.31	1132	-0.76
46.27	1134	-0.77
46.22	1136	-0.77
46.18	1138	-0.77
46.14	1140	-0.77
46.10	1142	-0.77
46.05	1145	-0.77
46.01	1147	-0.77
45.97	1149	-0.77
45.92	1151	-0.77
45.88	1153	-0.77
45.84	1155	-0.77
45.80	1157	-0.77
45.75	1159	-0.77
45.71	1161	-0.77
45.67	1163	-0.77
45.63	1166	-0.77
45.59	1168	-0.78
45.54	1170	-0.78
45.50	1172	-0.78
45.46	1174	-0.77
45.42	1176	-0.77
45.37	1178	-0.78
45.33	1180	-0.77
45.29	1182	-0.78
45.24	1184	-0.78
45.20	1187	-0.78
45.16	1189	-0.77
45.12	1191	-0.77
45.07	1193	-0.77
45.03	1195	-0.78
44.99	1197	-0.78
44.95	1199	-0.77
44.90	1201	-0.77
44.86	1203	-0.77
44.82	1205	-0.77
44.78	1208	-0.77
44.73	1210	-0.77
44.69	1212	-0.77
44.65	1214	-0.77
44.61	1216	-0.77
44.56	1218	-0.78
44.52	1220	-0.78
44.48	1222	-0.78
44.44	1224	-0.78
44.39	1226	-0.78
44.35	1229	-0.78
44.31	1231	-0.78
44.27	1233	-0.78
44.22	1235	-0.78
44.18	1237	-0.78
44.14	1239	-0.78
44.10	1241	-0.78
44.05	1243	-0.78
44.01	1245	-0.78
43.97	1247	-0.78
43.93	1250	-0.78
43.88	1252	-0.78
43.84	1254	-0.78
43.80	1256	-0.78
43.76	1258	-0.78
43.71	1260	-0.78
43.67	1262	-0.78
43.63	1264	-0.78
43.59	1266	-0.78
43.54	1268	-0.78
43.50	1271	-0.78
43.46	1273	-0.78
43.42	1275	-0.78
43.37	1277	-0.79
43.33	1279	-0.79
43.29	1281	-0.79
43.25	1283	-0.78
43.20	1285	-0.78
43.16	1287	-0.79
43.12	1289	-0.79
43.08	1292	-0.79
43.03	1294	-0.79
42.99	1296	-0.79
42.95	1298	-0.79
42.91	1300	-0.79
42.86	1302	-0.79
42.82	1304	-0.79
42.77	1306	-0.79
42.73	1308	-0.79
42.68	1310	-0.79
42.64	1313	-0.79
42.60	1315	-0.79
42.56	1317	-0.79
42.51	1319	-0.79
42.47	1321	-0.79
42.43	1323	-0.79
42.39	1325	-0.79
42.35	1327	-0.79
42.30	1329	-0.79
42.26	1331	-0.79
42.22	1334	-0.79
42.18	1336	-0.79
42.13	1338	-0.79
42.09	1340	-0.79
42.05	1342	-0.79
42.01	1344	-0.79
41.96	1346	-0.79
41.92	1348	-0.79
41.88	1350	-0.79
41.84	1352	-0.79
41.79	1355	-0.79
41.75	1357	-0.79
41.71	1359	-0.79
41.67	1361	-0.79
41.63	1363	-0.79
41.59	1365	-0.79
41.54	1367	-0.79
41.50	1369	-0.79
41.46	1371	-0.80
41.41	1373	-0.80
41.37	1376	-0.79
41.33	1378	-0.79
41.28	1380	-0.80
41.24	1382	-0.80
41.20	1384	-0.80
41.16	1386	-0.80
41.12	1388	-0.80
41.07	1390	-0.80
41.03	1392	-0.80
40.99	1394	-0.80
40.95	1397	-0.80
40.90	1399	-0.80
40.86	1401	-0.80
40.82	1403	-0.80
40.78	1405	-0.80
40.73	1407	-0.80
40.69	1409	-0.80
40.65	1411	-0.80
40.61	1413	-0.80
40.56	1415	-0.80
40.52	1418	-0.80
40.48	1420	-0.80
40.43	1422	-0.80
40.39	1424	-0.80
40.35	1426	-0.80
40.31	1428	-0.80
40.27	1430	-0.80
40.22	1432	-0.80
40.18	1434	-0.80
40.14	1436	-0.80
40.10	1439	-0.80
40.06	1441	-0.80
40.01	1443	-0.81
39.97	1445	-0.81
39.93	1447	-0.81
39.88	1449	-0.81
39.84	1451	-0.81
39.80	1453	-0.81
39.76	1455	-0.81
39.71	1457	-0.81
39.67	1460	-0.81
39.63	1462	-0.81
39.59	1464	-0.81
39.54	1466	-0.81
39.50	1468	-0.81
39.46	1470	-0.81
39.42	1472	-0.81
39.37	1474	-0.81
39.33	1476	-0.81
39.29	1478	-0.81
39.25	1481	-0.81
39.20	1483	-0.81
39.16	1485	-0.81
39.12	1487	-0.81
39.08	1489	-0.81
39.04	1491	-0.81
38.99	1493	-0.81
38.95	1495	-0.81
38.91	1497	-0.81
38.87	1499	-0.81
38.82	1502	-0.81
38.78	1504	-0.82
38.74	1506	-0.81
38.69	1508	-0.81
38.65	1510	-0.81
38.61	1512	-0.81
38.57	1514	-0.82
38.53	1516	-0.82
38.48	1518	-0.82
38.44	1520	-0.82
38.40	1523	-0.82
38.36	1525	-0.82
38.32	1527	-0.82
38.28	1529	-0.82
38.23	1531	-0.82
38.19	1533	-0.82
38.15	1535	-0.82
38.11	1537	-0.82
38.06	1539	-0.82
38.02	1541	-0.82
37.97	1544	-0.82
37.93	1546	-0.82
37.89	1548	-0.82
37.85	1550	-0.82
37.81	1552	-0.82
37.76	1554	-0.82
37.72	1556	-0.82
37.68	1558	-0.82
37.64	1560	-0.82
37.59	1562	-0.82
37.55	1565	-0.82
37.51	1567	-0.82
37.47	1569	-0.82
37.43	1571	-0.82
37.38	1573	-0.82
37.34	1575	-0.82
37.30	1577	-0.82
37.26	1579	-0.82
37.21	1581	-0.82
37.17	1583	-0.82
37.13	1586	-0.82
37.09	1588	-0.83
37.05	1590	-0.83
37.00	1592	-0.82
36.96	1594	-0.83
36.92	1596	-0.83
36.87	1598	-0.83
36.83	1600	-0.83
36.79	1602	-0.83
36.74	1604	-0.83
36.70	1607	-0.83
36.66	1609	-0.83
36.61	1611	-0.82
36.57	1613	-0.83
36.53	1615	-0.83
36.49	1617	-0.83
36.45	1619	-0.83
36.41	1621	-0.83
36.36	1623	-0.83
36.32	1625	-0.83
36.28	1628	-0.83
36.23	1630	-0.83
36.19	1632	-0.83
36.15	1634	-0.83
36.10	1636	-0.83
36.06	1638	-0.83
36.02	1640	-0.83
35.98	1642	-0.83
35.93	1644	-0.83
35.89	1646	-0.83
35.85	1649	-0.83
35.81	1651	-0.83
35.76	1653	-0.83
35.72	1655	-0.83
35.68	1657	-0.83
35.64	1659	-0.83
35.59	1661	-0.83
35.55	1663	-0.83
35.51	1665	-0.83
35.46	1667	-0.84
35.42	1670	-0.84
35.38	1672	-0.84
35.34	1674	-0.84
35.29	1676	-0.84
35.25	1678	-0.84
35.21	1680	-0.84
35.17	1682	-0.84
35.12	1684	-0.84
35.08	1686	-0.84
35.04	1688	-0.84
35.00	1691	-0.84
34.95	1693	-0.84
34.91	1695	-0.84
34.87	1697	-0.84
34.83	1699	-0.84
34.78	1701	-0.84
34.74	1703	-0.84
34.70	1705	-0.84
34.66	1707	-0.84
34.61	1709	-0.84
34.57	1712	-0.84
34.53	1714	-0.84
34.49	1716	-0.84
34.44	1718	-0.84
34.40	1720	-0.84
34.36	1722	-0.84
34.32	1724	-0.84
34.27	1726	-0.84
34.23	1728	-0.85
34.19	1730	-0.84
34.15	1733	-0.84
34.11	1735	-0.84
34.06	1737	-0.84
34.02	1739	-0.84
33.98	1741	-0.85
33.94	1743	-0.85
33.89	1745	-0.85
33.85	1747	-0.85
33.81	1749	-0.85
33.76	1751	-0.84
33.72	1754	-0.84
33.68	1756	-0.84
33.64	1758	-0.84
33.60	1760	-0.84
33.55	1762	-0.85
33.51	1764	-0.85
33.47	1766	-0.85
33.43	1768	-0.85
33.38	1770	-0.85
33.34	1772	-0.85
33.30	1775	-0.85
33.26	1777	-0.85
33.21	1779	-0.85
33.17	1781	-0.85
33.13	1783	-0.85
33.08	1785	-0.85
33.04	1787	-0.85
33.00	1789	-0.85
32.96	1791	-0.85
32.92	1793	-0.85
32.87	1796	-0.85
32.83	1798	-0.85
32.79	1800	-0.85
32.75	1802	-0.85
32.70	1804	-0.85
32.66	1806	-0.85
32.62	1808	-0.85
32.58	1810	-0.85
32.53	1812	-0.85
32.49	1814	-0.85
32.45	1817	-0.85
32.41	1819	-0.85
32.36	1821	-0.85
32.32	1823	-0.85
32.28	1825	-0.85
32.24	1827	-0.85
32.19	1829	-0.85
32.15	1831	-0.85
32.11	1833	-0.85
32.07	1835	-0.85
32.02	1838	-0.86
31.98	1840	-0.85
31.94	1842	-0.85
31.90	1844	-0.85
31.85	1846	-0.85
31.81	1848	-0.86
31.77	1850	-0.86
31.73	1852	-0.86
31.68	1854	-0.86
31.64	1856	-0.86
31.60	1859	-0.86
31.56	1861	-0.86
31.51	1863	-0.86
31.47	1865	-0.86
31.43	1867	-0.86
31.39	1869	-0.86
31.35	1871	-0.86
31.30	1873	-0.86
31.26	1875	-0.86
31.22	1877	-0.86
31.18	1880	-0.86
31.13	1882	-0.86
31.09	1884	-0.86
31.05	1886	-0.86
31.01	1888	-0.86
30.96	1890	-0.86
30.92	1892	-0.86
30.88	1894	-0.86
30.83	1896	-0.86
30.79	1898	-0.86
30.75	1901	-0.86
30.71	1903	-0.86
30.67	1905	-0.86
30.62	1907	-0.86
30.58	1909	-0.86
30.54	1911	-0.86
30.50	1913	-0.86
30.45	1915	-0.86
30.41	1917	-0.86
30.37	1919	-0.86
30.33	1922	-0.86
30.28	1924	-0.86
30.24	1926	-0.86
30.20	1928	-0.86
30.16	1930	-0.86
30.11	1932	-0.87
30.07	1934	-0.87
30.03	1936	-0.87
29.99	1938	-0.87
29.95	1940	-0.87
29.90	1943	-0.87
29.86	1945	-0.87
29.82	1947	-0.86
29.77	1949	-0.87
29.73	1951	-0.87
29.69	1953	-0.87
29.65	1955	-0.87
29.61	1957	-0.87
29.56	1959	-0.87
29.52	1961	-0.87
29.48	1964	-0.87
29.43	1966	-0.87
29.39	1968	-0.87
29.35	1970	-0.87
29.31	1972	-0.87
29.27	1974	-0.87
29.22	1976	-0.87
29.18	1978	-0.87
29.14	1980	-0.87
29.10	1982	-0.87
29.05	1985	-0.87
29.01	1987	-0.87
28.97	1989	-0.87
28.93	1991	-0.88
28.88	1993	-0.87
28.84	1995	-0.87
28.80	1997	-0.87
28.76	1999	-0.87
28.71	2001	-0.87
28.67	2003	-0.87
28.63	2006	-0.87
28.59	2008	-0.88
28.54	2010	-0.88
28.50	2012	-0.88
28.46	2014	-0.88
28.42	2016	-0.88
28.37	2018	-0.88
28.33	2020	-0.88
28.29	2022	-0.88
28.25	2024	-0.88
28.20	2027	-0.88
28.16	2029	-0.88
28.12	2031	-0.88
28.08	2033	-0.88
28.04	2035	-0.88
27.99	2037	-0.88
27.95	2039	-0.88
27.91	2041	-0.88
27.86	2043	-0.88
27.82	2045	-0.88
27.78	2048	-0.88
27.74	2050	-0.88
27.69	2052	-0.88
27.65	2054	-0.88
27.61	2056	-0.88
27.57	2058	-0.88
27.52	2060	-0.88
27.48	2062	-0.88
27.44	2064	-0.88
27.40	2066	-0.88
27.35	2069	-0.88
27.31	2071	-0.88
27.27	2073	-0.88
27.23	2075	-0.88
27.18	2077	-0.88
27.14	2079	-0.88
27.10	2081	-0.88
27.06	2083	-0.88
27.02	2085	-0.88
26.97	2087	-0.89
26.93	2090	-0.89
26.89	2092	-0.89
26.85	2094	-0.89
26.80	2096	-0.89
26.76	2098	-0.89
26.72	2100	-0.89
26.68	2102	-0.89
26.63	2104	-0.89
26.59	2106	-0.89
26.55	2108	-0.89
26.51	2111	-0.89
26.46	2113	-0.89
26.42	2115	-0.89
26.38	2117	-0.89
26.34	2119	-0.89
26.29	2121	-0.89
26.25	2123	-0.89
26.21	2125	-0.89
26.17	2127	-0.89
26.12	2129	-0.89
26.08	2132	-0.89
26.04	2134	-0.89
26.00	2136	-0.89
25.95	2138	-0.89
25.91	2140	-0.89
25.87	2142	-0.89
25.83	2144	-0.89
25.78	2146	-0.89
25.74	2148	-0.89
25.70	2150	-0.89
25.66	2153	-0.89
25.61	2155	-0.90
25.57	2157	-0.90
25.53	2159	-0.89
25.49	2161	-0.90
25.45	2163	-0.90
25.40	2165	-0.89
25.36	2167	-0.90
25.32	2169	-0.90
25.27	2171	-0.90
25.23	2174	-0.90
25.19	2176	-0.90
25.15	2178	-0.90
25.11	2180	-0.90
25.06	2182	-0.90
25.02	2184	-0.90
24.98	2186	-0.90
24.93	2188	-0.90
24.89	2190	-0.90
24.85	2192	-0.90
24.81	2195	-0.90
24.76	2197	-0.90
24.72	2199	-0.90
24.68	2201	-0.90
24.64	2203	-0.90
24.60	2205	-0.90
24.55	2207	-0.90
24.51	2209	-0.90
24.47	2211	-0.90
24.43	2213	-0.90
24.38	2216	-0.90
24.34	2218	-0.90
24.30	2220	-0.91
24.26	2222	-0.91
24.22	2224	-0.91
24.17	2226	-0.91
24.13	2228	-0.91
24.09	2230	-0.91
24.04	2232	-0.91
24.00	2234	-0.91
23.96	2237	-0.91
23.92	2239	-0.91
23.87	2241	-0.91
23.83	2243	-0.91
23.79	2245	-0.91
23.75	2247	-0.91
23.70	2249	-0.91
23.66	2251	-0.91
23.62	2253	-0.91
23.58	2255	-0.91
23.54	2258	-0.91
23.49	2260	-0.91
23.45	2262	-0.91
23.41	2264	-0.91
23.37	2266	-0.91
23.32	2268	-0.91
23.28	2270	-0.91
23.24	2272	-0.91
23.20	2274	-0.91
23.15	2276	-0.91
23.11	2279	-0.91
23.07	2281	-0.91
23.02	2283	-0.91
22.98	2285	-0.91
22.94	2287	-0.91
22.90	2289	-0.91
22.86	2291	-0.91
22.81	2293	-0.91
22.77	2295	-0.91
22.73	2297	-0.91
22.69	2300	-0.91
22.64	2302	-0.91
22.60	2304	-0.91
22.56	2306	-0.91
22.52	2308	-0.91
22.47	2310	-0.91
22.43	2312	-0.91
22.39	2314	-0.91
22.35	2316	-0.91
22.30	2318	-0.91
22.26	2321	-0.91
22.22	2323	-0.92
22.18	2325	-0.92
22.14	2327	-0.92
22.09	2329	-0.92
22.05	2331	-0.92
22.01	2333	-0.92
21.97	2335	-0.92
21.92	2337	-0.92
21.88	2339	-0.92
21.84	2342	-0.92
21.80	2344	-0.92
21.75	2346	-0.92
21.71	2348	-0.92
21.67	2350	-0.92
21.63	2352	-0.92
21.58	2354	-0.92
21.54	2356	-0.92
21.50	2358	-0.92
21.46	2360	-0.92
21.41	2363	-0.92
21.37	2365	-0.92
21.33	2367	-0.92
21.29	2369	-0.92
21.24	2371	-0.92
21.20	2373	-0.92
21.16	2375	-0.92
21.12	2377	-0.92
21.07	2379	-0.92
21.03	2381	-0.92
20.99	2384	-0.92
20.95	2386	-0.92
20.91	2388	-0.92
20.86	2390	-0.92
20.82	2392	-0.92
20.78	2394	-0.92
20.74	2396	-0.92
20.69	2398	-0.92
20.65	2400	-0.92
20.61	2402	-0.92
20.57	2405	-0.92
20.52	2407	-0.92
20.48	2409	-0.92
20.44	2411	-0.92
20.40	2413	-0.92
20.35	2415	-0.92
20.31	2417	-0.92
20.27	2419	-0.92
20.23	2421	-0.92
20.18	2423	-0.92
20.14	2426	-0.92
20.10	2428	-0.92
20.06	2430	-0.92
20.01	2432	-0.92
19.97	2434	-0.92
19.93	2436	-0.93
19.89	2438	-0.93
19.85	2440	-0.93
19.80	2442	-0.93
19.76	2444	-0.93
19.72	2447	-0.93
19.68	2449	-0.93
19.63	2451	-0.93
19.59	2453	-0.93
19.55	2455	-0.93
19.51	2457	-0.93
19.46	2459	-0.93
19.42	2461	-0.93
19.38	2463	-0.93
19.34	2465	-0.93
19.29	2468	-0.93
19.25	2470	-0.93
19.21	2472	-0.93
19.17	2474	-0.93
19.12	2476	-0.93
19.08	2478	-0.93
19.04	2480	-0.93
19.00	2482	-0.93
18.96	2484	-0.93
18.91	2486	-0.93
18.87	2489	-0.93
18.83	2491	-0.93
18.79	2493	-0.93
18.74	2495	-0.93
18.70	2497	-0.93
18.66	2499	-0.93
18.62	2501	-0.93
18.57	2503	-0.93
18.53	2505	-0.93
18.49	2507	-0.93
18.45	2510	-0.93
18.40	2512	-0.93
18.36	2514	-0.93
18.32	2516	-0.93
18.28	2518	-0.93
18.24	2520	-0.93
18.19	2522	-0.93
18.15	2524	-0.93
18.11	2526	-0.93
18.07	2528	-0.93
18.02	2531	-0.93
17.98	2533	-0.93
17.94	2535	-0.93
17.90	2537	-0.93
17.85	2539	-0.93
17.81	2541	-0.93
17.77	2543	-0.93
17.73	2545	-0.93
17.68	2547	-0.93
17.64	2549	-0.93
17.60	2552	-0.93
17.56	2554	-0.93
17.51	2556	-0.93
17.47	2558	-0.93
17.43	2560	-0.93
17.39	2562	-0.93
17.35	2564	-0.93
17.30	2566	-0.93
17.26	2568	-0.93
17.22	2570	-0.93
17.18	2573	-0.93
17.13	2575	-0.93
17.09	2577	-0.93
17.05	2579	-0.93
17.01	2581	-0.93
16.96	2583	-0.93
16.92	2585	-0.93
16.88	2587	-0.93
16.84	2589	-0.93
16.79	2591	-0.93
16.75	2594	-0.93
16.71	2596	-0.93
16.66	2598	-0.93
16.62	2600	-0.93
16.58	2602	-0.93
16.54	2604	-0.93
16.50	2606	-0.93
16.45	2608	-0.93
16.41	2610	-0.93
16.37	2612	-0.93
16.33	2615	-0.93
16.28	2617	-0.93
16.24	2619	-0.94
16.20	2621	-0.94
16.16	2623	-0.93
16.11	2625	-0.93
16.07	2627	-0.93
16.03	2629	-0.93
15.99	2631	-0.94
15.95	2633	-0.94
15.90	2636	-0.94
15.86	2638	-0.94
15.82	2640	-0.94
15.78	2642	-0.94
15.73	2644	-0.94
15.69	2646	-0.94
15.65	2648	-0.94
15.61	2650	-0.94
15.57	2652	-0.94
15.52	2654	-0.94
15.48	2657	-0.94
15.44	2659	-0.94
15.40	2661	-0.94
15.35	2663	-0.94
15.31	2665	-0.94
15.27	2667	-0.94
15.23	2669	-0.94
15.19	2671	-0.94
15.14	2673	-0.94
15.10	2675	-0.94
15.06	2678	-0.94
15.02	2680	-0.94
14.97	2682	-0.94
14.93	2684	-0.94
14.89	2686	-0.94
14.85	2688	-0.94
14.81	2690	-0.94
14.76	2692	-0.94
14.72	2694	-0.94
14.68	2696	-0.94
14.64	2699	-0.94
14.60	2701	-0.94
14.55	2703	-0.94
14.51	2705	-0.94
14.47	2707	-0.94
14.43	2709	-0.94
14.39	2711	-0.94
14.34	2713	-0.94
14.30	2715	-0.95
14.26	2717	-0.95
14.22	2720	-0.94
14.18	2722	-0.94
14.13	2724	-0.94
14.09	2726	-0.94
14.05	2728	-0.94
14.01	2730	-0.94
13.97	2732	-0.94
13.92	2734	-0.94
13.88	2736	-0.94
13.84	2738	-0.94
13.80	2741	-0.95
13.76	2743	-0.95
13.72	2745	-0.95
13.67	2747	-0.95
13.63	2749	-0.95
13.59	2751	-0.95
13.55	2753	-0.95
13.51	2755	-0.95
13.46	2757	-0.95
13.42	2759	-0.95
13.38	2762	-0.95
13.34	2764	-0.95
13.30	2766	-0.95
13.25	2768	-0.95
13.21	2770	-0.95
13.17	2772	-0.95
13.13	2774	-0.95
13.09	2776	-0.95
13.04	2778	-0.95
13.00	2780	-0.95
12.96	2783	-0.95
12.92	2785	-0.95
12.88	2787	-0.95
12.83	2789	-0.95
12.79	2791	-0.95
12.75	2793	-0.95
12.71	2795	-0.95
12.66	2797	-0.95
12.62	2799	-0.95
12.58	2801	-0.95
12.54	2804	-0.95
12.50	2806	-0.95
12.45	2808	-0.95
12.41	2810	-0.95
12.37	2812	-0.95
12.33	2814	-0.95
12.29	2816	-0.95
12.24	2818	-0.95
12.20	2820	-0.95
12.16	2822	-0.95
12.12	2825	-0.95
12.07	2827	-0.95
12.03	2829	-0.95
11.99	2831	-0.95
11.95	2833	-0.95
11.91	2835	-0.95
11.86	2837	-0.95
11.82	2839	-0.95
11.78	2841	-0.95
11.74	2843	-0.95
11.70	2846	-0.95
11.65	2848	-0.95
11.61	2850	-0.95
11.57	2852	-0.95
11.53	2854	-0.95
11.49	2856	-0.95
11.44	2858	-0.95
11.40	2860	-0.95
11.36	2862	-0.95
11.32	2864	-0.95
11.28	2867	-0.95
11.23	2869	-0.95
11.19	2871	-0.95
11.15	2873	-0.96
11.11	2875	-0.96
11.07	2877	-0.96
11.02	2879	-0.96
10.98	2881	-0.96
10.94	2883	-0.96
10.90	2885	-0.96
10.86	2888	-0.96
10.81	2890	-0.95
10.77	2892	-0.95
10.73	2894	-0.95
10.69	2896	-0.95
10.64	2898	-0.95
10.60	2900	-0.95
10.56	2902	-0.95
10.52	2904	-0.96
10.48	2906	-0.95
10.43	2909	-0.95
10.39	2911	-0.95
10.35	2913	-0.95
10.31	2915	-0.95
10.27	2917	-0.95
10.23	2919	-0.95
10.18	2921	-0.95
10.14	2923	-0.95
10.10	2925	-0.95
10.06	2927	-0.95
10.02	2930	-0.95
9.98	2932	-0.95
9.93	2934	-0.95
9.89	2936	-0.95
9.85	2938	-0.95
9.81	2940	-0.95
9.77	2942	-0.95
9.72	2944	-0.95
9.68	2946	-0.95
9.64	2948	-0.95
9.60	2951	-0.95
9.56	2953	-0.95
9.52	2955	-0.95
9.47	2957	-0.95
9.43	2959	-0.95
9.39	2961	-0.95
9.35	2963	-0.94
9.31	2965	-0.94
9.27	2967	-0.94
9.22	2969	-0.94
9.18	2972	-0.94
9.14	2974	-0.94
9.10	2976	-0.94
9.06	2978	-0.94
9.02	2980	-0.94
8.98	2982	-0.94
8.94	2984	-0.93
8.89	2986	-0.93
8.85	2988	-0.93
8.81	2990	-0.93
8.77	2993	-0.93
8.73	2995	-0.93
8.69	2997	-0.93
8.64	2999	-0.93
8.63	3000	-0.93