File: rawdata/P85_5
P85
Furnace temperature 	Time	HeatFlow
/°C	/s	/mW
64.94	0	0.39
65.12	2	0.39
65.41	4	0.38
65.86	6	0.38
66.37	8	0.38
66.86	11	0.37
67.28	13	0.35
67.59	15	0.34
67.78	17	0.32
67.88	19	0.29
67.91	21	0.26
67.91	23	0.24
67.89	25	0.21
67.87	27	0.18
67.86	29	0.15
67.86	32	0.12
67.87	34	0.09
67.87	36	0.06
67.87	38	0.03
67.87	40	-0.01
67.86	42	-0.04
67.84	44	-0.07
67.82	46	-0.10
67.80	48	-0.14
67.78	50	-0.17
67.76	53	-0.20
67.73	55	-0.23
67.71	57	-0.26
67.68	59	-0.30
67.66	61	-0.33
67.63	63	-0.36
67.60	65	-0.39
67.57	67	-0.41
67.54	69	-0.44
67.52	71	-0.47
67.48	74	-0.49
67.45	76	-0.52
67.42	78	-0.54
67.39	80	-0.57
67.36	82	-0.59
67.32	84	-0.61
67.29	86	-0.63
67.25	88	-0.65
67.22	90	-0.67
67.19	92	-0.68
67.15	95	-0.70
67.11	97	-0.71
67.08	99	-0.73
67.04	101	-0.74
67.00	103	-0.75
66.97	105	-0.77
66.93	107	-0.78
66.89	109	-0.79
66.86	111	-0.80
66.82	113	-0.81
66.78	116	-0.82
66.74	118	-0.83
66.70	120	-0.85
66.67	122	-0.86
66.63	124	-0.87
66.59	126	-0.88
66.55	128	-0.89
66.51	130	-0.91
66.47	132	-0.92
66.43	134	-0.93
66.39	137	-0.95
66.35	139	-0.96
66.31	141	-0.97
66.27	143	-0.98
66.23	145	-0.99
66.19	147	-1.00
66.15	149	-1.01
66.11	151	-1.03
66.07	153	-1.04
66.03	155	-1.05
65.99	158	-1.06
65.95	160	-1.07
65.91	162	-1.07
65.90	164	-1.08
65.91	166	-1.09
65.90	168	-1.10
65.88	170	-1.10
65.84	172	-1.11
65.80	174	-1.11
65.74	176	-1.11
65.69	179	-1.12
65.65	181	-1.12
65.61	183	-1.12
65.57	185	-1.12
65.54	187	-1.13
65.51	189	-1.13
65.47	191	-1.13
65.43	193	-1.13
65.39	195	-1.13
65.35	197	-1.12
65.31	200	-1.12
65.27	202	-1.12
65.22	204	-1.12
65.18	206	-1.11
65.14	208	-1.11
65.10	210	-1.10
65.06	212	-1.10
65.02	214	-1.10
64.98	216	-1.09
64.94	218	-1.09
64.89	221	-1.08
64.85	223	-1.08
64.81	225	-1.07
64.77	227	-1.07
64.72	229	-1.06
64.68	231	-1.05
64.64	233	-1.05
64.60	235	-1.04
64.55	237	-1.04
64.51	239	-1.04
64.47	242	-1.03
64.42	244	-1.03
64.38	246	-1.02
64.34	248	-1.02
64.29	250	-1.01
64.25	252	-1.01
64.21	254	-1.00
64.16	256	-1.00
64.12	258	-1.00
64.08	260	-1.00
64.03	263	-1.00
63.99	265	-0.99
63.95	267	-0.99
63.90	269	-0.99
63.86	271	-0.98
63.82	273	-0.98
63.77	275	-0.98
63.73	277	-0.98
63.69	279	-0.98
63.64	281	-0.97
63.60	284	-0.97
63.56	286	-0.97
63.51	288	-0.96
63.47	290	-0.96
63.43	292	-0.96
63.38	294	-0.96
63.34	296	-0.96
63.29	298	-0.96
63.25	300	-0.95
63.21	302	-0.95
63.16	305	-0.94
63.12	307	-0.94
63.08	309	-0.94
63.03	311	-0.94
62.99	313	-0.94
62.95	315	-0.94
62.90	317	-0.93
62.86	319	-0.93
62.81	321	-0.93
62.77	323	-0.94
62.73	326	-0.94
62.68	328	-0.94
62.64	330	-0.94
62.60	332	-0.94
62.55	334	-0.94
62.51	336	-0.94
62.47	338	-0.94
62.42	340	-0.94
62.38	342	-0.94
62.33	344	-0.94
62.29	347	-0.94
62.25	349	-0.95
62.20	351	-0.95
62.16	353	-0.95
62.12	355	-0.95
62.07	357	-0.95
62.03	359	-0.95
61.99	361	-0.95
61.94	363	-0.96
61.90	365	-0.96
61.86	368	-0.96
61.81	370	-0.95
61.77	372	-0.96
61.72	374	-0.96
61.68	376	-0.96
61.64	378	-0.96
61.59	380	-0.97
61.55	382	-0.96
61.51	384	-0.97
61.46	386	-0.97
61.42	389	-0.97
61.38	391	-0.98
61.33	393	-0.98
61.29	395	-0.98
61.25	397	-0.98
61.20	399	-0.99
61.16	401	-0.99
61.12	403	-0.99
61.07	405	-0.99
61.03	407	-1.00
60.99	410	-1.00
60.94	412	-1.00
60.90	414	-1.00
60.86	416	-1.00
60.81	418	-1.01
60.77	420	-1.01
60.73	422	-1.01
60.68	424	-1.01
60.64	426	-1.01
60.60	428	-1.01
60.55	431	-1.02
60.51	433	-1.02
60.47	435	-1.02
60.42	437	-1.02
60.38	439	-1.02
60.34	441	-1.03
60.30	443	-1.03
60.25	445	-1.03
60.21	447	-1.03
60.17	449	-1.03
60.12	452	-1.03
60.08	454	-1.04
60.04	456	-1.04
59.99	458	-1.04
59.95	460	-1.04
59.91	462	-1.04
59.86	464	-1.05
59.82	466	-1.05
59.78	468	-1.05
59.74	470	-1.05
59.69	473	-1.05
59.65	475	-1.05
59.61	477	-1.05
59.56	479	-1.05
59.52	481	-1.05
59.48	483	-1.05
59.43	485	-1.06
59.39	487	-1.06
59.35	489	-1.06
59.30	491	-1.06
59.26	494	-1.06
59.22	496	-1.06
59.18	498	-1.06
59.13	500	-1.06
59.09	502	-1.06
59.05	504	-1.07
59.00	506	-1.06
58.96	508	-1.07
58.92	510	-1.07
58.87	512	-1.07
58.83	515	-1.07
58.79	517	-1.07
58.75	519	-1.07
58.70	521	-1.07
58.66	523	-1.07
58.62	525	-1.07
58.57	527	-1.07
58.53	529	-1.07
58.49	531	-1.07
58.45	533	-1.08
58.40	536	-1.08
58.36	538	-1.08
58.32	540	-1.08
58.27	542	-1.08
58.23	544	-1.08
58.19	546	-1.08
58.15	548	-1.08
58.10	550	-1.08
58.06	552	-1.08
58.02	554	-1.08
57.97	557	-1.08
57.93	559	-1.07
57.89	561	-1.08
57.85	563	-1.08
57.80	565	-1.08
57.76	567	-1.08
57.72	569	-1.08
57.67	571	-1.08
57.63	573	-1.08
57.59	575	-1.08
57.55	578	-1.08
57.50	580	-1.08
57.46	582	-1.08
57.42	584	-1.08
57.38	586	-1.08
57.33	588	-1.08
57.29	590	-1.08
57.25	592	-1.08
57.20	594	-1.08
57.16	596	-1.08
57.12	599	-1.08
57.08	601	-1.08
57.03	603	-1.08
56.99	605	-1.08
56.95	607	-1.08
56.91	609	-1.08
56.86	611	-1.08
56.82	613	-1.08
56.78	615	-1.08
56.73	617	-1.08
56.69	620	-1.08
56.65	622	-1.08
56.61	624	-1.08
56.56	626	-1.08
56.52	628	-1.08
56.48	630	-1.08
56.44	632	-1.08
56.39	634	-1.08
56.35	636	-1.08
56.31	638	-1.08
56.26	641	-1.08
56.22	643	-1.08
56.18	645	-1.08
56.14	647	-1.08
56.09	649	-1.08
56.05	651	-1.08
56.01	653	-1.08
55.97	655	-1.08
55.92	657	-1.08
55.88	659	-1.08
55.84	662	-1.08
55.80	664	-1.08
55.75	666	-1.08
55.71	668	-1.08
55.67	670	-1.08
55.62	672	-1.08
55.58	674	-1.08
55.54	676	-1.08
55.50	678	-1.08
55.45	680	-1.08
55.41	683	-1.08
55.37	685	-1.08
55.33	687	-1.08
55.28	689	-1.08
55.24	691	-1.08
55.20	693	-1.08
55.16	695	-1.08
55.11	697	-1.08
55.07	699	-1.08
55.03	701	-1.07
54.99	704	-1.08
54.94	706	-1.08
54.90	708	-1.08
54.86	710	-1.08
54.81	712	-1.08
54.77	714	-1.08
54.73	716	-1.08
54.69	718	-1.07
54.65	720	-1.08
54.60	722	-1.08
54.56	725	-1.08
54.52	727	-1.08
54.47	729	-1.08
54.43	731	-1.08
54.39	733	-1.08
54.35	735	-1.08
54.30	737	-1.08
54.26	739	-1.08
54.22	741	-1.08
54.18	743	-1.07
54.13	746	-1.07
54.09	748	-1.08
54.05	750	-1.08
54.01	752	-1.07
53.96	754	-1.07
53.92	756	-1.07
53.88	758	-1.07
53.84	760	-1.07
53.79	762	-1.07
53.75	764	-1.07
53.71	767	-1.07
53.67	769	-1.07
53.62	771	-1.07
53.58	773	-1.07
53.54	775	-1.07
53.49	777	-1.07
53.45	779	-1.07
53.41	781	-1.08
53.37	783	-1.07
53.33	785	-1.07
53.28	788	-1.07
53.24	790	-1.07
53.20	792	-1.07
53.16	794	-1.07
53.11	796	-1.08
53.07	798	-1.07
53.03	800	-1.07
52.98	802	-1.07
52.94	804	-1.07
52.90	806	-1.07
52.86	809	-1.07
52.81	811	-1.07
52.77	813	-1.07
52.73	815	-1.07
52.69	817	-1.07
52.64	819	-1.07
52.60	821	-1.07
52.56	823	-1.07
52.52	825	-1.07
52.47	827	-1.07
52.43	830	-1.07
52.39	832	-1.07
52.35	834	-1.07
52.30	836	-1.07
52.26	838	-1.06
52.22	840	-1.07
52.18	842	-1.06
52.13	844	-1.06
52.09	846	-1.06
52.05	848	-1.06
52.01	851	-1.06
51.96	853	-1.06
51.92	855	-1.06
51.88	857	-1.06
51.84	859	-1.07
51.79	861	-1.07
51.75	863	-1.06
51.71	865	-1.06
51.66	867	-1.06
51.62	869	-1.06
51.58	872	-1.06
51.54	874	-1.06
51.49	876	-1.06
51.45	878	-1.06
51.41	880	-1.06
51.37	882	-1.06
51.33	884	-1.06
51.28	886	-1.06
51.24	888	-1.06
51.20	890	-1.06
51.15	893	-1.06
51.11	895	-1.06
51.07	897	-1.06
51.03	899	-1.06
50.99	901	-1.05
50.94	903	-1.05
50.90	905	-1.05
50.86	907	-1.05
50.82	909	-1.05
50.77	911	-1.05
50.73	914	-1.05
50.69	916	-1.05
50.64	918	-1.05
50.60	920	-1.05
50.56	922	-1.05
50.52	924	-1.04
50.47	926	-1.05
50.43	928	-1.05
50.39	930	-1.05
50.35	932	-1.05
50.30	935	-1.05
50.26	937	-1.05
50.22	939	-1.04
50.18	941	-1.04
50.13	943	-1.04
50.09	945	-1.05
50.05	947	-1.05
50.01	949	-1.05
49.96	951	-1.04
49.92	953	-1.04
49.88	956	-1.04
49.84	958	-1.04
49.79	960	-1.04
49.75	962	-1.04
49.71	964	-1.04
49.67	966	-1.04
49.62	968	-1.04
49.58	970	-1.04
49.54	972	-1.04
49.50	974	-1.04
49.45	977	-1.04
49.41	979	-1.04
49.37	981	-1.04
49.33	983	-1.04
49.28	985	-1.04
49.24	987	-1.04
49.20	989	-1.04
49.16	991	-1.03
49.11	993	-1.03
49.07	995	-1.03
49.03	998	-1.03
48.99	1000	-1.03
48.94	1002	-1.03
48.90	1004	-1.03
48.86	1006	-1.03
48.81	1008	-1.03
48.77	1010	-1.03
48.73	1012	-1.03
48.69	1014	-1.03
48.65	1016	-1.03
48.60	1019	-1.03
48.56	1021	-1.03
48.52	1023	-1.02
48.47	1025	-1.02
48.43	1027	-1.02
48.39	1029	-1.02
48.35	1031	-1.02
48.31	1033	-1.02
48.26	1035	-1.02
48.22	1037	-1.02
48.18	1040	-1.02
48.13	1042	-1.02
48.09	1044	-1.02
48.05	1046	-1.02
48.01	1048	-1.02
47.96	1050	-1.02
47.92	1052	-1.02
47.88	1054	-1.02
47.84	1056	-1.02
47.80	1058	-1.01
47.75	1061	-1.01
47.71	1063	-1.01
47.67	1065	-1.01
47.62	1067	-1.01
47.58	1069	-1.01
47.54	1071	-1.01
47.50	1073	-1.01
47.45	1075	-1.01
47.41	1077	-1.01
47.37	1079	-1.01
47.33	1082	-1.01
47.29	1084	-1.01
47.24	1086	-1.01
47.20	1088	-1.01
47.16	1090	-1.01
47.11	1092	-1.01
47.07	1094	-1.00
47.03	1096	-1.00
46.99	1098	-1.00
46.94	1100	-1.00
46.90	1103	-1.00
46.86	1105	-1.00
46.82	1107	-1.00
46.77	1109	-1.00
46.73	1111	-1.00
46.69	1113	-0.99
46.65	1115	-0.99
46.60	1117	-0.99
46.56	1119	-0.99
46.52	1121	-0.99
46.48	1124	-0.99
46.43	1126	-0.99
46.39	1128	-0.99
46.35	1130	-0.99
46.31	1132	-0.99
46.26	1134	-0.99
46.22	1136	-0.98
46.18	1138	-0.98
46.14	1140	-0.98
46.09	1142	-0.98
46.05	1145	-0.98
46.01	1147	-0.98
45.97	1149	-0.98
45.92	1151	-0.98
45.88	1153	-0.97
45.84	1155	-0.97
45.80	1157	-0.97
45.75	1159	-0.97
45.71	1161	-0.97
45.67	1163	-0.97
45.63	1166	-0.97
45.58	1168	-0.97
45.54	1170	-0.97
45.50	1172	-0.97
45.46	1174	-0.97
45.41	1176	-0.96
45.37	1178	-0.96
45.33	1180	-0.96
45.29	1182	-0.96
45.24	1184	-0.96
45.20	1187	-0.96
45.16	1189	-0.96
45.12	1191	-0.96
45.07	1193	-0.96
45.03	1195	-0.95
44.99	1197	-0.95
44.95	1199	-0.95
44.90	1201	-0.95
44.86	1203	-0.95
44.82	1205	-0.95
44.78	1208	-0.95
44.73	1210	-0.94
44.69	1212	-0.94
44.65	1214	-0.94
44.61	1216	-0.94
44.56	1218	-0.94
44.52	1220	-0.94
44.48	1222	-0.94
44.44	1224	-0.93
44.39	1226	-0.94
44.35	1229	-0.94
44.31	1231	-0.93
44.27	1233	-0.93
44.22	1235	-0.93
44.18	1237	-0.93
44.14	1239	-0.93
44.10	1241	-0.92
44.05	1243	-0.92
44.01	1245	-0.93
43.97	1247	-0.92
43.93	1250	-0.92
43.88	1252	-0.92
43.84	1254	-0.92
43.80	1256	-0.91
43.76	1258	-0.91
43.71	1260	-0.91
43.67	1262	-0.91
43.63	1264	-0.91
43.59	1266	-0.91
43.54	1268	-0.90
43.50	1271	-0.90
43.46	1273	-0.90
43.42	1275	-0.90
43.37	1277	-0.89
43.33	1279	-0.89
43.29	1281	-0.89
43.25	1283	-0.89
43.20	1285	-0.89
43.16	1287	-0.89
43.12	1289	-0.88
43.08	1292	-0.88
43.03	1294	-0.88
42.99	1296	-0.88
42.95	1298	-0.88
42.91	1300	-0.87
42.86	1302	-0.87
42.82	1304	-0.87
42.78	1306	-0.87
42.73	1308	-0.87
42.69	1310	-0.87
42.65	1313	-0.87
42.61	1315	-0.86
42.57	1317	-0.86
42.52	1319	-0.86
42.48	1321	-0.86
42.44	1323	-0.86
42.40	1325	-0.85
42.35	1327	-0.85
42.31	1329	-0.85
42.27	1331	-0.85
42.23	1334	-0.84
42.18	1336	-0.84
42.14	1338	-0.84
42.10	1340	-0.84
42.06	1342	-0.83
42.01	1344	-0.83
41.97	1346	-0.83
41.93	1348	-0.83
41.89	1350	-0.82
41.84	1352	-0.82
41.80	1355	-0.82
41.76	1357	-0.81
41.72	1359	-0.81
41.67	1361	-0.81
41.63	1363	-0.81
41.59	1365	-0.80
41.55	1367	-0.80
41.50	1369	-0.80
41.46	1371	-0.80
41.42	1373	-0.80
41.38	1376	-0.79
41.33	1378	-0.79
41.29	1380	-0.79
41.25	1382	-0.78
41.21	1384	-0.78
41.16	1386	-0.78
41.12	1388	-0.78
41.08	1390	-0.77
41.04	1392	-0.77
40.99	1394	-0.77
40.95	1397	-0.76
40.91	1399	-0.76
40.87	1401	-0.76
40.82	1403	-0.75
40.78	1405	-0.75
40.74	1407	-0.75
40.70	1409	-0.74
40.65	1411	-0.74
40.61	1413	-0.74
40.57	1415	-0.73
40.52	1418	-0.73
40.48	1420	-0.73
40.44	1422	-0.72
40.40	1424	-0.72
40.36	1426	-0.72
40.31	1428	-0.71
40.27	1430	-0.71
40.23	1432	-0.71
40.19	1434	-0.70
40.14	1436	-0.70
40.10	1439	-0.70
40.06	1441	-0.70
40.02	1443	-0.69
39.97	1445	-0.69
39.93	1447	-0.68
39.89	1449	-0.68
39.85	1451	-0.68
39.80	1453	-0.67
39.76	1455	-0.67
39.72	1457	-0.66
39.68	1460	-0.66
39.63	1462	-0.65
39.59	1464	-0.65
39.55	1466	-0.65
39.51	1468	-0.64
39.46	1470	-0.64
39.42	1472	-0.63
39.38	1474	-0.63
39.34	1476	-0.63
39.29	1478	-0.62
39.25	1481	-0.62
39.21	1483	-0.61
39.17	1485	-0.61
39.12	1487	-0.60
39.08	1489	-0.60
39.04	1491	-0.60
39.00	1493	-0.59
38.95	1495	-0.59
38.91	1497	-0.58
38.87	1499	-0.58
38.83	1502	-0.58
38.78	1504	-0.57
38.74	1506	-0.57
38.70	1508	-0.56
38.66	1510	-0.55
38.61	1512	-0.55
38.57	1514	-0.55
38.53	1516	-0.54
38.49	1518	-0.54
38.44	1520	-0.53
38.40	1523	-0.52
38.36	1525	-0.51
38.32	1527	-0.51
38.27	1529	-0.50
38.23	1531	-0.50
38.19	1533	-0.49
38.15	1535	-0.49
38.10	1537	-0.48
38.06	1539	-0.48
38.02	1541	-0.47
37.98	1544	-0.47
37.93	1546	-0.46
37.89	1548	-0.46
37.85	1550	-0.45
37.81	1552	-0.44
37.76	1554	-0.44
37.72	1556	-0.43
37.68	1558	-0.42
37.64	1560	-0.42
37.59	1562	-0.41
37.55	1565	-0.41
37.51	1567	-0.40
37.47	1569	-0.39
37.42	1571	-0.39
37.38	1573	-0.38
37.34	1575	-0.37
37.30	1577	-0.36
37.25	1579	-0.36
37.21	1581	-0.35
37.17	1583	-0.34
37.13	1586	-0.33
37.08	1588	-0.33
37.04	1590	-0.32
37.00	1592	-0.32
36.96	1594	-0.31
36.91	1596	-0.30
36.87	1598	-0.29
36.83	1600	-0.28
36.79	1602	-0.28
36.74	1604	-0.27
36.70	1607	-0.26
36.66	1609	-0.25
36.62	1611	-0.25
36.57	1613	-0.24
36.53	1615	-0.23
36.49	1617	-0.22
36.45	1619	-0.21
36.40	1621	-0.20
36.36	1623	-0.20
36.32	1625	-0.19
36.28	1628	-0.18
36.23	1630	-0.17
36.19	1632	-0.16
36.15	1634	-0.15
36.11	1636	-0.14
36.06	1638	-0.14
36.02	1640	-0.12
35.98	1642	-0.11
35.94	1644	-0.11
35.89	1646	-0.10
35.85	1649	-0.09
35.81	1651	-0.08
35.76	1653	-0.07
35.72	1655	-0.06
35.68	1657	-0.05
35.63	1659	-0.04
35.59	1661	-0.03
35.55	1663	-0.02
35.51	1665	-0.01
35.46	1667	0.00
35.42	1670	0.01
35.38	1672	0.02
35.34	1674	0.03
35.29	1676	0.04
35.25	1678	0.05
35.21	1680	0.06
35.17	1682	0.07
35.12	1684	0.08
35.08	1686	0.10
35.04	1688	0.11
35.00	1691	0.12
34.95	1693	0.13
34.91	1695	0.14
34.87	1697	0.15
34.83	1699	0.16
34.78	1701	0.17
34.74	1703	0.19
34.70	1705	0.20
34.66	1707	0.21
34.61	1709	0.22
34.57	1712	0.23
34.53	1714	0.25
34.49	1716	0.26
34.44	1718	0.27
34.40	1720	0.29
34.36	1722	0.30
34.32	1724	0.31
34.27	1726	0.32
34.23	1728	0.34
34.19	1730	0.35
34.15	1733	0.36
34.11	1735	0.37
34.06	1737	0.39
34.02	1739	0.40
33.98	1741	0.42
33.94	1743	0.43
33.89	1745	0.44
33.85	1747	0.46
33.81	1749	0.47
33.77	1751	0.48
33.72	1754	0.50
33.68	1756	0.52
33.64	1758	0.53
33.60	1760	0.55
33.55	1762	0.56
33.51	1764	0.57
33.47	1766	0.59
33.43	1768	0.61
33.38	1770	0.62
33.34	1772	0.63
33.30	1775	0.65
33.25	1777	0.66
33.21	1779	0.68
33.17	1781	0.70
33.13	1783	0.71
33.09	1785	0.73
33.04	1787	0.75
33.00	1789	0.76
32.96	1791	0.78
32.92	1793	0.80
32.87	1796	0.81
32.83	1798	0.83
32.79	1800	0.85
32.75	1802	0.86
32.70	1804	0.88
32.66	1806	0.90
32.62	1808	0.92
32.58	1810	0.93
32.53	1812	0.95
32.49	1814	0.97
32.45	1817	0.99
32.41	1819	1.01
32.36	1821	1.03
32.32	1823	1.05
32.28	1825	1.06
32.24	1827	1.08
32.19	1829	1.10
32.15	1831	1.12
32.11	1833	1.14
32.07	1835	1.16
32.03	1838	1.18
31.98	1840	1.20
31.94	1842	1.22
31.90	1844	1.24
31.86	1846	1.26
31.81	1848	1.28
31.77	1850	1.30
31.73	1852	1.32
31.69	1854	1.34
31.64	1856	1.36
31.60	1859	1.38
31.56	1861	1.40
31.52	1863	1.42
31.47	1865	1.44
31.43	1867	1.46
31.39	1869	1.48
31.35	1871	1.50
31.30	1873	1.53
31.26	1875	1.55
31.22	1877	1.57
31.18	1880	1.59
31.13	1882	1.61
31.09	1884	1.64
31.05	1886	1.66
31.01	1888	1.68
30.96	1890	1.71
30.92	1892	1.73
30.88	1894	1.75
30.84	1896	1.77
30.80	1898	1.80
30.75	1901	1.82
30.71	1903	1.84
30.67	1905	1.87
30.63	1907	1.89
30.58	1909	1.91
30.54	1911	1.93
30.50	1913	1.96
30.46	1915	1.98
30.41	1917	2.01
30.37	1919	2.03
30.33	1922	2.06
30.29	1924	2.08
30.24	1926	2.10
30.20	1928	2.13
30.16	1930	2.15
30.12	1932	2.18
30.07	1934	2.20
30.03	1936	2.23
29.99	1938	2.25
29.95	1940	2.27
29.90	1943	2.30
29.86	1945	2.32
29.82	1947	2.35
29.78	1949	2.38
29.73	1951	2.40
29.69	1953	2.43
29.65	1955	2.45
29.60	1957	2.48
29.56	1959	2.50
29.52	1961	2.52
29.48	1964	2.55
29.44	1966	2.57
29.39	1968	2.60
29.35	1970	2.63
29.31	1972	2.65
29.27	1974	2.68
29.23	1976	2.70
29.18	1978	2.73
29.14	1980	2.75
29.10	1982	2.78
29.05	1985	2.81
29.01	1987	2.83
28.97	1989	2.86
28.93	1991	2.88
28.88	1993	2.90
28.84	1995	2.93
28.80	1997	2.96
28.76	1999	2.98
28.71	2001	3.01
28.67	2003	3.03
28.63	2006	3.06
28.59	2008	3.08
28.55	2010	3.11
28.50	2012	3.13
28.46	2014	3.16
28.42	2016	3.18
28.38	2018	3.21
28.33	2020	3.23
28.29	2022	3.25
28.25	2024	3.27
28.20	2027	3.30
28.16	2029	3.32
28.12	2031	3.35
28.08	2033	3.37
28.03	2035	3.39
27.99	2037	3.42
27.95	2039	3.44
27.91	2041	3.46
27.87	2043	3.48
27.83	2045	3.50
27.78	2048	3.53
27.74	2050	3.55
27.70	2052	3.57
27.65	2054	3.59
27.61	2056	3.61
27.57	2058	3.63
27.53	2060	3.65
27.48	2062	3.67
27.44	2064	3.69
27.40	2066	3.71
27.36	2069	3.73
27.31	2071	3.74
27.27	2073	3.76
27.23	2075	3.78
27.19	2077	3.80
27.14	2079	3.81
27.10	2081	3.83
27.06	2083	3.84
27.02	2085	3.86
26.97	2087	3.87
26.93	2090	3.89
26.89	2092	3.90
26.85	2094	3.91
26.81	2096	3.92
26.76	2098	3.94
26.72	2100	3.94
26.68	2102	3.95
26.64	2104	3.96
26.59	2106	3.98
26.55	2108	3.98
26.51	2111	3.99
26.47	2113	4.00
26.42	2115	4.00
26.38	2117	4.00
26.34	2119	4.01
26.30	2121	4.01
26.25	2123	4.02
26.21	2125	4.02
26.17	2127	4.01
26.13	2129	4.01
26.08	2132	4.01
26.04	2134	4.01
26.00	2136	4.01
25.96	2138	4.00
25.91	2140	4.00
25.87	2142	3.99
25.83	2144	3.98
25.79	2146	3.97
25.74	2148	3.96
25.70	2150	3.95
25.66	2153	3.93
25.62	2155	3.92
25.57	2157	3.90
25.53	2159	3.89
25.49	2161	3.87
25.45	2163	3.84
25.41	2165	3.82
25.36	2167	3.80
25.32	2169	3.77
25.28	2171	3.75
25.24	2174	3.72
25.19	2176	3.69
25.15	2178	3.66
25.11	2180	3.63
25.06	2182	3.59
25.02	2184	3.56
24.98	2186	3.52
24.94	2188	3.48
24.89	2190	3.44
24.85	2192	3.40
24.81	2195	3.35
24.77	2197	3.31
24.72	2199	3.26
24.68	2201	3.22
24.64	2203	3.17
24.60	2205	3.11
24.56	2207	3.06
24.51	2209	3.01
24.47	2211	2.96
24.43	2213	2.90
24.39	2216	2.84
24.34	2218	2.78
24.30	2220	2.73
24.26	2222	2.67
24.22	2224	2.61
24.17	2226	2.55
24.13	2228	2.48
24.09	2230	2.42
24.05	2232	2.36
24.00	2234	2.30
23.96	2237	2.24
23.92	2239	2.18
23.88	2241	2.12
23.84	2243	2.05
23.79	2245	1.99
23.75	2247	1.93
23.71	2249	1.87
23.67	2251	1.81
23.62	2253	1.75
23.58	2255	1.70
23.54	2258	1.64
23.50	2260	1.58
23.45	2262	1.53
23.41	2264	1.48
23.37	2266	1.42
23.33	2268	1.37
23.28	2270	1.32
23.24	2272	1.27
23.20	2274	1.22
23.16	2276	1.18
23.11	2279	1.13
23.07	2281	1.09
23.03	2283	1.04
22.99	2285	1.00
22.94	2287	0.96
22.90	2289	0.91
22.86	2291	0.87
22.82	2293	0.83
22.77	2295	0.79
22.73	2297	0.76
22.69	2300	0.72
22.65	2302	0.68
22.61	2304	0.65
22.56	2306	0.62
22.52	2308	0.58
22.48	2310	0.55
22.44	2312	0.52
22.39	2314	0.49
22.35	2316	0.46
22.31	2318	0.43
22.27	2321	0.40
22.22	2323	0.37
22.18	2325	0.34
22.14	2327	0.31
22.10	2329	0.29
22.05	2331	0.26
22.01	2333	0.23
21.97	2335	0.21
21.93	2337	0.18
21.88	2339	0.16
21.84	2342	0.14
21.80	2344	0.12
21.76	2346	0.09
21.72	2348	0.07
21.67	2350	0.05
21.63	2352	0.03
21.59	2354	0.01
21.54	2356	-0.01
21.50	2358	-0.03
21.46	2360	-0.05
21.42	2363	-0.06
21.38	2365	-0.08
21.33	2367	-0.10
21.29	2369	-0.12
21.25	2371	-0.13
21.21	2373	-0.15
21.16	2375	-0.16
21.12	2377	-0.18
21.08	2379	-0.20
21.04	2381	-0.21
20.99	2384	-0.22
20.95	2386	-0.24
20.91	2388	-0.25
20.87	2390	-0.26
20.82	2392	-0.28
20.78	2394	-0.29
20.74	2396	-0.30
20.70	2398	-0.32
20.65	2400	-0.33
20.61	2402	-0.34
20.57	2405	-0.35
20.53	2407	-0.36
20.48	2409	-0.37
20.44	2411	-0.38
20.40	2413	-0.39
20.36	2415	-0.40
20.32	2417	-0.41
20.27	2419	-0.42
20.23	2421	-0.43
20.19	2423	-0.44
20.15	2426	-0.45
20.10	2428	-0.46
20.06	2430	-0.47
20.02	2432	-0.48
19.98	2434	-0.49
19.93	2436	-0.49
19.89	2438	-0.50
19.85	2440	-0.51
19.81	2442	-0.51
19.76	2444	-0.52
19.72	2447	-0.53
19.68	2449	-0.54
19.64	2451	-0.54
19.60	2453	-0.55
19.55	2455	-0.56
19.51	2457	-0.57
19.47	2459	-0.57
19.43	2461	-0.58
19.38	2463	-0.59
19.34	2465	-0.59
19.30	2468	-0.60
19.26	2470	-0.60
19.21	2472	-0.61
19.17	2474	-0.61
19.13	2476	-0.62
19.09	2478	-0.63
19.04	2480	-0.63
19.00	2482	-0.64
18.96	2484	-0.64
18.92	2486	-0.65
18.88	2489	-0.65
18.83	2491	-0.66
18.79	2493	-0.66
18.75	2495	-0.67
18.71	2497	-0.67
18.66	2499	-0.67
18.62	2501	-0.68
18.58	2503	-0.68
18.54	2505	-0.69
18.50	2507	-0.69
18.45	2510	-0.70
18.41	2512	-0.70
18.37	2514	-0.71
18.32	2516	-0.71
18.28	2518	-0.71
18.24	2520	-0.72
18.20	2522	-0.72
18.16	2524	-0.73
18.11	2526	-0.73
18.07	2528	-0.73
18.03	2531	-0.73
17.99	2533	-0.74
17.94	2535	-0.74
17.90	2537	-0.74
17.86	2539	-0.75
17.82	2541	-0.75
17.77	2543	-0.76
17.73	2545	-0.76
17.69	2547	-0.76
17.65	2549	-0.77
17.60	2552	-0.77
17.56	2554	-0.77
17.52	2556	-0.77
17.48	2558	-0.78
17.44	2560	-0.78
17.39	2562	-0.78
17.35	2564	-0.78
17.31	2566	-0.79
17.27	2568	-0.79
17.22	2570	-0.79
17.18	2573	-0.80
17.14	2575	-0.80
17.10	2577	-0.80
17.06	2579	-0.80
17.01	2581	-0.81
16.97	2583	-0.81
16.93	2585	-0.81
16.89	2587	-0.81
16.85	2589	-0.82
16.80	2591	-0.82
16.76	2594	-0.82
16.72	2596	-0.82
16.68	2598	-0.82
16.63	2600	-0.83
16.59	2602	-0.83
16.55	2604	-0.83
16.51	2606	-0.83
16.46	2608	-0.84
16.42	2610	-0.84
16.38	2612	-0.84
16.34	2615	-0.84
16.29	2617	-0.84
16.25	2619	-0.85
16.21	2621	-0.85
16.17	2623	-0.85
16.12	2625	-0.85
16.08	2627	-0.85
16.04	2629	-0.86
16.00	2631	-0.86
15.96	2633	-0.86
15.92	2636	-0.86
15.87	2638	-0.86
15.83	2640	-0.87
15.79	2642	-0.87
15.75	2644	-0.87
15.70	2646	-0.87
15.66	2648	-0.88
15.62	2650	-0.88
15.58	2652	-0.88
15.53	2654	-0.88
15.49	2657	-0.88
15.45	2659	-0.88
15.41	2661	-0.89
15.37	2663	-0.89
15.32	2665	-0.89
15.28	2667	-0.89
15.24	2669	-0.89
15.20	2671	-0.90
15.16	2673	-0.90
15.11	2675	-0.90
15.07	2678	-0.90
15.03	2680	-0.90
14.99	2682	-0.90
14.94	2684	-0.90
14.90	2686	-0.91
14.86	2688	-0.91
14.82	2690	-0.91
14.77	2692	-0.91
14.73	2694	-0.91
14.69	2696	-0.91
14.65	2699	-0.91
14.61	2701	-0.92
14.56	2703	-0.92
14.52	2705	-0.92
14.48	2707	-0.92
14.44	2709	-0.92
14.40	2711	-0.92
14.35	2713	-0.92
14.31	2715	-0.93
14.27	2717	-0.93
14.23	2720	-0.93
14.19	2722	-0.93
14.14	2724	-0.93
14.10	2726	-0.93
14.06	2728	-0.94
14.02	2730	-0.94
13.97	2732	-0.94
13.93	2734	-0.94
13.89	2736	-0.94
13.85	2738	-0.95
13.81	2741	-0.95
13.76	2743	-0.95
13.72	2745	-0.95
13.68	2747	-0.95
13.64	2749	-0.95
13.60	2751	-0.95
13.55	2753	-0.95
13.51	2755	-0.95
13.47	2757	-0.96
13.43	2759	-0.96
13.39	2762	-0.96
13.34	2764	-0.96
13.30	2766	-0.96
13.26	2768	-0.96
13.22	2770	-0.96
13.17	2772	-0.96
13.13	2774	-0.96
13.09	2776	-0.96
13.05	2778	-0.97
13.01	2780	-0.97
12.96	2783	-0.97
12.92	2785	-0.97
12.88	2787	-0.97
12.84	2789	-0.97
12.80	2791	-0.98
12.76	2793	-0.98
12.71	2795	-0.98
12.67	2797	-0.98
12.63	2799	-0.98
12.59	2801	-0.98
12.55	2804	-0.98
12.50	2806	-0.98
12.46	2808	-0.98
12.42	2810	-0.98
12.38	2812	-0.98
12.34	2814	-0.99
12.29	2816	-0.99
12.25	2818	-0.99
12.21	2820	-0.99
12.17	2822	-0.99
12.13	2825	-0.99
12.09	2827	-0.99
12.04	2829	-0.99
12.00	2831	-0.99
11.96	2833	-0.99
11.92	2835	-0.99
11.88	2837	-0.99
11.83	2839	-0.99
11.79	2841	-1.00
11.75	2843	-1.00
11.71	2846	-1.00
11.67	2848	-1.00
11.63	2850	-1.00
11.58	2852	-1.00
11.54	2854	-1.00
11.50	2856	-1.00
11.46	2858	-1.00
11.42	2860	-1.00
11.38	2862	-1.00
11.33	2864	-1.00
11.29	2867	-1.00
11.25	2869	-1.00
11.21	2871	-1.00
11.17	2873	-1.00
11.13	2875	-1.00
11.08	2877	-1.00
11.04	2879	-1.00
11.00	2881	-1.00
10.96	2883	-1.00
10.92	2885	-1.00
10.88	2888	-1.00
10.83	2890	-1.01
10.79	2892	-1.00
10.75	2894	-1.00
10.71	2896	-1.00
10.67	2898	-1.00
10.63	2900	-1.00
10.59	2902	-1.00
10.55	2904	-1.00
10.50	2906	-1.00
10.46	2909	-1.00
10.42	2911	-1.00
10.38	2913	-1.00
10.34	2915	-1.00
10.30	2917	-0.99
10.26	2919	-0.99
10.22	2921	-0.99
10.17	2923	-0.99
10.13	2925	-0.99
10.09	2927	-0.99
10.05	2930	-0.99
10.01	2932	-0.99
9.97	2934	-0.99
9.93	2936	-0.98
9.89	2938	-0.98
9.85	2940	-0.98
9.80	2942	-0.98
9.76	2944	-0.98
9.72	2946	-0.98
9.68	2948	-0.98
9.64	2951	-0.98
9.60	2953	-0.98
9.56	2955	-0.98
9.52	2957	-0.97
9.48	2959	-0.97
9.44	2961	-0.97
9.40	2963	-0.97
9.36	2965	-0.97
9.32	2967	-0.97
9.28	2969	-0.97
9.24	2972	-0.97
9.20	2974	-0.96
9.16	2976	-0.96
9.12	2978	-0.96
9.07	2980	-0.96
9.03	2982	-0.96
9.00	2984	-0.96
8.96	2986	-0.96
8.92	2988	-0.96
8.88	2990	-0.95
8.84	2993	-0.95
8.80	2995	-0.95
8.76	2997	-0.95
8.72	2999	-0.95
8.70	3000	-0.95