File: rawdata/P85_4
P85
Furnace temperature 	Time	HeatFlow
/°C	/s	/mW
8.22	0	-0.96
8.19	6	-0.96
8.09	12	-0.96
7.99	18	-0.95
7.89	24	-0.95
7.79	30	-0.94
7.68	36	-0.94
7.57	42	-0.94
7.44	48	-0.93
7.30	54	-0.92
7.15	60	-0.90
6.99	66	-0.88
6.83	72	-0.85
6.68	78	-0.81
6.54	84	-0.76
6.41	90	-0.71
6.30	96	-0.65
6.20	102	-0.59
6.12	108	-0.53
6.05	114	-0.47
6.00	120	-0.41
5.95	126	-0.35
5.92	132	-0.29
5.89	138	-0.23
5.88	144	-0.18
5.86	150	-0.12
5.86	156	-0.07
5.86	162	-0.02
5.77	168	0.02
5.69	174	0.07
5.60	180	0.11
5.51	186	0.15
5.43	192	0.18
5.35	198	0.22
5.27	204	0.25
5.20	210	0.28
5.15	216	0.31
5.11	222	0.33
5.09	228	0.35
5.09	234	0.37
5.11	240	0.39
5.14	246	0.41
5.18	252	0.42
5.23	258	0.44
5.29	264	0.45
5.35	270	0.46
5.41	276	0.47
5.48	282	0.48
5.55	288	0.48
5.62	294	0.49
5.69	300	0.49
5.76	306	0.50
5.84	312	0.50
5.91	318	0.50
5.98	324	0.51
6.06	330	0.51
6.13	336	0.51
6.20	342	0.51
6.27	348	0.51
6.34	354	0.51
6.41	360	0.51
6.49	366	0.51
6.56	372	0.51
6.62	378	0.50
6.69	384	0.50
6.76	390	0.50
6.82	396	0.50
6.89	402	0.50
6.95	408	0.50
7.02	414	0.49
7.08	420	0.49
7.15	426	0.49
7.21	432	0.49
7.27	438	0.48
7.33	444	0.48
7.39	450	0.48
7.45	456	0.48
7.51	462	0.47
7.57	468	0.47
7.63	474	0.47
7.69	480	0.47
7.75	486	0.46
7.81	492	0.46
7.87	498	0.46
7.92	504	0.46
7.98	510	0.46
8.04	516	0.45
8.09	522	0.45
8.15	528	0.45
8.20	534	0.45
8.26	540	0.45
8.32	546	0.44
8.37	552	0.44
8.43	558	0.44
8.48	564	0.44
8.54	570	0.44
8.59	576	0.44
8.64	582	0.44
8.70	588	0.44
8.75	594	0.44
8.80	600	0.43
8.86	606	0.43
8.91	612	0.43
8.96	618	0.43
9.02	624	0.43
9.07	630	0.43
9.12	636	0.43
9.17	642	0.43
9.22	648	0.43
9.28	654	0.43
9.33	660	0.43
9.38	666	0.43
9.43	672	0.42
9.49	678	0.42
9.54	684	0.42
9.59	690	0.42
9.64	696	0.42
9.69	702	0.42
9.74	708	0.42
9.80	714	0.42
9.85	720	0.42
9.90	726	0.42
9.95	732	0.42
10.00	738	0.42
10.06	744	0.41
10.11	750	0.41
10.16	756	0.41
10.21	762	0.41
10.26	768	0.41
10.31	774	0.41
10.37	780	0.41
10.42	786	0.41
10.47	792	0.41
10.52	798	0.41
10.57	804	0.41
10.62	810	0.41
10.68	816	0.41
10.73	822	0.40
10.78	828	0.40
10.83	834	0.40
10.88	840	0.40
10.93	846	0.40
10.98	852	0.40
11.04	858	0.40
11.09	864	0.40
11.14	870	0.40
11.19	876	0.40
11.24	882	0.40
11.29	888	0.40
11.34	894	0.40
11.39	900	0.39
11.44	906	0.39
11.50	912	0.39
11.55	918	0.39
11.60	924	0.39
11.65	930	0.39
11.70	936	0.39
11.75	942	0.39
11.80	948	0.39
11.85	954	0.39
11.90	960	0.39
11.95	966	0.39
12.00	972	0.39
12.06	978	0.39
12.11	984	0.39
12.16	990	0.39
12.21	996	0.38
12.26	1002	0.38
12.31	1008	0.38
12.36	1014	0.38
12.41	1020	0.38
12.46	1026	0.38
12.51	1032	0.38
12.56	1038	0.38
12.62	1044	0.38
12.67	1050	0.38
12.72	1056	0.38
12.77	1062	0.38
12.82	1068	0.38
12.87	1074	0.38
12.92	1080	0.38
12.97	1086	0.38
13.02	1092	0.38
13.07	1098	0.38
13.12	1104	0.38
13.17	1110	0.38
13.22	1116	0.37
13.27	1122	0.37
13.33	1128	0.37
13.38	1134	0.37
13.43	1140	0.37
13.48	1146	0.37
13.53	1152	0.37
13.58	1158	0.37
13.63	1164	0.37
13.68	1170	0.37
13.73	1176	0.37
13.78	1182	0.37
13.83	1188	0.37
13.88	1194	0.37
13.93	1200	0.37
13.98	1206	0.37
14.03	1212	0.37
14.09	1218	0.37
14.14	1224	0.37
14.19	1230	0.36
14.24	1236	0.36
14.29	1242	0.36
14.34	1248	0.36
14.39	1254	0.36
14.44	1260	0.36
14.49	1266	0.36
14.54	1272	0.36
14.59	1278	0.36
14.64	1284	0.36
14.69	1290	0.36
14.75	1296	0.36
14.79	1302	0.36
14.85	1308	0.36
14.90	1314	0.36
14.95	1320	0.36
15.00	1326	0.36
15.05	1332	0.35
15.10	1338	0.35
15.15	1344	0.35
15.20	1350	0.35
15.25	1356	0.35
15.30	1362	0.35
15.35	1368	0.35
15.40	1374	0.35
15.45	1380	0.35
15.51	1386	0.35
15.56	1392	0.35
15.61	1398	0.35
15.66	1404	0.35
15.71	1410	0.35
15.76	1416	0.34
15.81	1422	0.34
15.86	1428	0.34
15.91	1434	0.34
15.96	1440	0.34
16.01	1446	0.34
16.06	1452	0.34
16.11	1458	0.34
16.16	1464	0.34
16.21	1470	0.34
16.26	1476	0.34
16.31	1482	0.34
16.37	1488	0.34
16.42	1494	0.34
16.47	1500	0.34
16.52	1506	0.34
16.57	1512	0.33
16.62	1518	0.33
16.67	1524	0.33
16.72	1530	0.33
16.77	1536	0.33
16.82	1542	0.33
16.87	1548	0.33
16.92	1554	0.33
16.97	1560	0.33
17.02	1566	0.33
17.07	1572	0.33
17.13	1578	0.33
17.18	1584	0.33
17.23	1590	0.33
17.28	1596	0.33
17.33	1602	0.32
17.38	1608	0.32
17.43	1614	0.32
17.48	1620	0.32
17.53	1626	0.32
17.58	1632	0.32
17.63	1638	0.32
17.68	1644	0.32
17.73	1650	0.32
17.78	1656	0.32
17.83	1662	0.32
17.89	1668	0.32
17.94	1674	0.32
17.99	1680	0.32
18.04	1686	0.32
18.09	1692	0.32
18.14	1698	0.31
18.19	1704	0.31
18.24	1710	0.31
18.29	1716	0.31
18.34	1722	0.31
18.39	1728	0.31
18.44	1734	0.31
18.49	1740	0.31
18.54	1746	0.31
18.59	1752	0.31
18.65	1758	0.31
18.70	1764	0.31
18.75	1770	0.31
18.80	1776	0.31
18.85	1782	0.30
18.90	1788	0.30
18.95	1794	0.30
19.00	1800	0.30
19.05	1806	0.30
19.10	1812	0.30
19.15	1818	0.30
19.20	1824	0.30
19.25	1830	0.30
19.30	1836	0.30
19.35	1842	0.30
19.40	1848	0.30
19.46	1854	0.30
19.51	1860	0.29
19.56	1866	0.29
19.61	1872	0.29
19.66	1878	0.29
19.71	1884	0.29
19.76	1890	0.29
19.81	1896	0.29
19.86	1902	0.29
19.91	1908	0.29
19.96	1914	0.29
20.01	1920	0.29
20.06	1926	0.28
20.11	1932	0.28
20.16	1938	0.28
20.22	1944	0.28
20.27	1950	0.28
20.32	1956	0.28
20.37	1962	0.28
20.42	1968	0.28
20.47	1974	0.28
20.52	1980	0.27
20.57	1986	0.27
20.62	1992	0.27
20.67	1998	0.27
20.72	2004	0.27
20.77	2010	0.27
20.82	2016	0.27
20.87	2022	0.26
20.92	2028	0.26
20.98	2034	0.26
21.03	2040	0.25
21.08	2046	0.25
21.13	2052	0.25
21.18	2058	0.25
21.23	2064	0.24
21.28	2070	0.24
21.33	2076	0.23
21.38	2082	0.23
21.43	2088	0.23
21.48	2094	0.22
21.53	2100	0.22
21.58	2106	0.22
21.63	2112	0.21
21.68	2118	0.21
21.73	2124	0.20
21.78	2130	0.20
21.83	2136	0.20
21.89	2142	0.19
21.94	2148	0.19
21.99	2154	0.18
22.04	2160	0.18
22.09	2166	0.17
22.14	2172	0.17
22.19	2178	0.16
22.24	2184	0.15
22.29	2190	0.15
22.34	2196	0.14
22.39	2202	0.13
22.44	2208	0.12
22.49	2214	0.11
22.54	2220	0.10
22.59	2226	0.09
22.65	2232	0.08
22.70	2238	0.07
22.75	2244	0.06
22.80	2250	0.05
22.85	2256	0.04
22.90	2262	0.02
22.95	2268	0.01
23.00	2274	-0.00
23.05	2280	-0.02
23.10	2286	-0.03
23.15	2292	-0.05
23.20	2298	-0.06
23.25	2304	-0.08
23.30	2310	-0.10
23.35	2316	-0.11
23.40	2322	-0.13
23.46	2328	-0.15
23.51	2334	-0.17
23.56	2340	-0.19
23.61	2346	-0.21
23.66	2352	-0.24
23.71	2358	-0.26
23.76	2364	-0.28
23.81	2370	-0.31
23.86	2376	-0.33
23.91	2382	-0.36
23.96	2388	-0.39
24.01	2394	-0.42
24.06	2400	-0.44
24.11	2406	-0.47
24.16	2412	-0.51
24.22	2418	-0.54
24.27	2424	-0.57
24.32	2430	-0.60
24.37	2436	-0.64
24.42	2442	-0.67
24.47	2448	-0.70
24.52	2454	-0.74
24.57	2460	-0.77
24.62	2466	-0.81
24.67	2472	-0.84
24.72	2478	-0.88
24.77	2484	-0.92
24.82	2490	-0.95
24.87	2496	-0.99
24.92	2502	-1.02
24.98	2508	-1.05
25.03	2514	-1.09
25.08	2520	-1.12
25.13	2526	-1.16
25.18	2532	-1.19
25.23	2538	-1.22
25.28	2544	-1.25
25.33	2550	-1.28
25.38	2556	-1.31
25.43	2562	-1.34
25.48	2568	-1.37
25.53	2574	-1.40
25.58	2580	-1.42
25.63	2586	-1.45
25.68	2592	-1.47
25.73	2598	-1.50
25.78	2604	-1.52
25.83	2610	-1.54
25.89	2616	-1.56
25.94	2622	-1.58
25.99	2628	-1.60
26.04	2634	-1.62
26.09	2640	-1.64
26.14	2646	-1.65
26.19	2652	-1.67
26.24	2658	-1.68
26.29	2664	-1.70
26.34	2670	-1.71
26.39	2676	-1.72
26.44	2682	-1.73
26.49	2688	-1.74
26.54	2694	-1.75
26.59	2700	-1.76
26.64	2706	-1.77
26.70	2712	-1.77
26.75	2718	-1.78
26.80	2724	-1.79
26.85	2730	-1.79
26.90	2736	-1.79
26.95	2742	-1.80
27.00	2748	-1.80
27.05	2754	-1.80
27.10	2760	-1.80
27.15	2766	-1.80
27.20	2772	-1.80
27.25	2778	-1.80
27.30	2784	-1.80
27.35	2790	-1.80
27.40	2796	-1.80
27.46	2802	-1.79
27.51	2808	-1.79
27.56	2814	-1.79
27.61	2820	-1.78
27.66	2826	-1.78
27.71	2832	-1.77
27.76	2838	-1.77
27.81	2844	-1.76
27.86	2850	-1.75
27.91	2856	-1.75
27.96	2862	-1.74
28.01	2868	-1.73
28.06	2874	-1.73
28.11	2880	-1.72
28.16	2886	-1.71
28.21	2892	-1.70
28.27	2898	-1.69
28.32	2904	-1.69
28.37	2910	-1.68
28.42	2916	-1.67
28.47	2922	-1.66
28.52	2928	-1.65
28.57	2934	-1.64
28.62	2940	-1.63
28.67	2946	-1.62
28.72	2952	-1.61
28.77	2958	-1.59
28.82	2964	-1.58
28.87	2970	-1.57
28.92	2976	-1.56
28.97	2982	-1.55
29.02	2988	-1.54
29.07	2994	-1.52
29.13	3000	-1.51
29.18	3006	-1.50
29.23	3012	-1.49
29.28	3018	-1.47
29.33	3024	-1.46
29.38	3030	-1.45
29.43	3036	-1.44
29.48	3042	-1.42
29.53	3048	-1.41
29.58	3054	-1.40
29.63	3060	-1.39
29.68	3066	-1.37
29.73	3072	-1.36
29.78	3078	-1.35
29.83	3084	-1.34
29.88	3090	-1.32
29.94	3096	-1.31
29.99	3102	-1.30
30.04	3108	-1.28
30.09	3114	-1.27
30.14	3120	-1.26
30.19	3126	-1.24
30.24	3132	-1.23
30.29	3138	-1.22
30.34	3144	-1.20
30.39	3150	-1.19
30.44	3156	-1.18
30.49	3162	-1.16
30.54	3168	-1.15
30.59	3174	-1.14
30.64	3180	-1.12
30.69	3186	-1.11
30.75	3192	-1.10
30.80	3198	-1.09
30.85	3204	-1.07
30.90	3210	-1.06
30.95	3216	-1.05
31.00	3222	-1.03
31.05	3228	-1.02
31.10	3234	-1.01
31.15	3240	-0.99
31.20	3246	-0.98
31.25	3252	-0.97
31.30	3258	-0.96
31.35	3264	-0.95
31.40	3270	-0.93
31.45	3276	-0.92
31.50	3282	-0.91
31.55	3288	-0.90
31.61	3294	-0.88
31.66	3300	-0.87
31.71	3306	-0.86
31.76	3312	-0.85
31.81	3318	-0.84
31.86	3324	-0.83
31.91	3330	-0.81
31.96	3336	-0.80
32.01	3342	-0.79
32.06	3348	-0.78
32.11	3354	-0.77
32.16	3360	-0.76
32.21	3366	-0.74
32.26	3372	-0.73
32.31	3378	-0.72
32.36	3384	-0.71
32.42	3390	-0.70
32.47	3396	-0.69
32.52	3402	-0.68
32.57	3408	-0.67
32.62	3414	-0.66
32.67	3420	-0.65
32.72	3426	-0.64
32.77	3432	-0.62
32.82	3438	-0.61
32.87	3444	-0.60
32.92	3450	-0.59
32.97	3456	-0.58
33.02	3462	-0.57
33.07	3468	-0.56
33.12	3474	-0.55
33.18	3480	-0.55
33.23	3486	-0.53
33.28	3492	-0.53
33.33	3498	-0.51
33.38	3504	-0.51
33.43	3510	-0.50
33.48	3516	-0.49
33.53	3522	-0.48
33.58	3528	-0.47
33.63	3534	-0.46
33.68	3540	-0.45
33.73	3546	-0.44
33.78	3552	-0.43
33.83	3558	-0.42
33.88	3564	-0.42
33.93	3570	-0.41
33.98	3576	-0.40
34.03	3582	-0.39
34.09	3588	-0.38
34.14	3594	-0.37
34.19	3600	-0.37
34.24	3606	-0.36
34.29	3612	-0.35
34.34	3618	-0.34
34.39	3624	-0.33
34.44	3630	-0.32
34.49	3636	-0.32
34.54	3642	-0.31
34.59	3648	-0.30
34.64	3654	-0.29
34.69	3660	-0.29
34.74	3666	-0.28
34.79	3672	-0.27
34.85	3678	-0.26
34.90	3684	-0.26
34.95	3690	-0.25
35.00	3696	-0.24
35.05	3702	-0.24
35.10	3708	-0.23
35.15	3714	-0.22
35.20	3720	-0.22
35.25	3726	-0.21
35.30	3732	-0.20
35.35	3738	-0.20
35.40	3744	-0.19
35.45	3750	-0.18
35.50	3756	-0.18
35.55	3762	-0.17
35.60	3768	-0.16
35.66	3774	-0.16
35.71	3780	-0.15
35.76	3786	-0.14
35.81	3792	-0.14
35.86	3798	-0.13
35.91	3804	-0.13
35.96	3810	-0.12
36.01	3816	-0.12
36.06	3822	-0.11
36.11	3828	-0.10
36.16	3834	-0.10
36.21	3840	-0.09
36.26	3846	-0.09
36.31	3852	-0.08
36.36	3858	-0.08
36.41	3864	-0.07
36.46	3870	-0.07
36.52	3876	-0.06
36.57	3882	-0.06
36.62	3888	-0.05
36.67	3894	-0.05
36.72	3900	-0.04
36.77	3906	-0.04
36.82	3912	-0.03
36.87	3918	-0.03
36.92	3924	-0.02
36.97	3930	-0.02
37.02	3936	-0.01
37.07	3942	-0.01
37.12	3948	-0.01
37.17	3954	-0.00
37.22	3960	0.00
37.27	3966	0.01
37.33	3972	0.01
37.38	3978	0.02
37.43	3984	0.02
37.48	3990	0.02
37.53	3996	0.03
37.58	4002	0.03
37.63	4008	0.04
37.68	4014	0.04
37.73	4020	0.04
37.78	4026	0.05
37.83	4032	0.05
37.88	4038	0.06
37.93	4044	0.06
37.98	4050	0.06
38.03	4056	0.07
38.08	4062	0.07
38.13	4068	0.07
38.18	4074	0.08
38.24	4080	0.08
38.29	4086	0.08
38.34	4092	0.09
38.39	4098	0.09
38.44	4104	0.10
38.49	4110	0.10
38.54	4116	0.10
38.59	4122	0.11
38.64	4128	0.11
38.69	4134	0.11
38.74	4140	0.12
38.79	4146	0.12
38.84	4152	0.12
38.89	4158	0.12
38.94	4164	0.13
38.99	4170	0.13
39.05	4176	0.13
39.10	4182	0.14
39.15	4188	0.14
39.20	4194	0.14
39.25	4200	0.14
39.30	4206	0.15
39.35	4212	0.15
39.40	4218	0.15
39.45	4224	0.16
39.50	4230	0.16
39.55	4236	0.16
39.60	4242	0.16
39.65	4248	0.17
39.70	4254	0.17
39.75	4260	0.17
39.80	4266	0.17
39.86	4272	0.18
39.91	4278	0.18
39.96	4284	0.18
40.01	4290	0.18
40.06	4296	0.19
40.11	4302	0.19
40.16	4308	0.19
40.21	4314	0.20
40.26	4320	0.20
40.31	4326	0.20
40.36	4332	0.20
40.41	4338	0.20
40.46	4344	0.20
40.51	4350	0.21
40.56	4356	0.21
40.61	4362	0.21
40.66	4368	0.21
40.71	4374	0.21
40.77	4380	0.22
40.82	4386	0.22
40.87	4392	0.22
40.92	4398	0.22
40.97	4404	0.23
41.02	4410	0.23
41.07	4416	0.23
41.12	4422	0.23
41.17	4428	0.23
41.22	4434	0.23
41.27	4440	0.24
41.32	4446	0.24
41.37	4452	0.24
41.42	4458	0.24
41.47	4464	0.24
41.53	4470	0.24
41.58	4476	0.25
41.63	4482	0.25
41.68	4488	0.25
41.73	4494	0.25
41.78	4500	0.25
41.83	4506	0.25
41.88	4512	0.25
41.93	4518	0.26
41.98	4524	0.26
42.03	4530	0.26
42.08	4536	0.26
42.13	4542	0.26
42.18	4548	0.26
42.23	4554	0.27
42.28	4560	0.27
42.33	4566	0.27
42.39	4572	0.27
42.44	4578	0.28
42.49	4584	0.28
42.54	4590	0.28
42.59	4596	0.28
42.64	4602	0.28
42.69	4608	0.28
42.74	4614	0.28
42.79	4620	0.28
42.84	4626	0.29
42.89	4632	0.29
42.94	4638	0.29
42.99	4644	0.29
43.04	4650	0.29
43.09	4656	0.29
43.14	4662	0.29
43.20	4668	0.29
43.25	4674	0.30
43.30	4680	0.29
43.35	4686	0.30
43.40	4692	0.30
43.45	4698	0.30
43.50	4704	0.30
43.55	4710	0.30
43.60	4716	0.30
43.65	4722	0.30
43.71	4728	0.30
43.76	4734	0.30
43.80	4740	0.30
43.85	4746	0.31
43.90	4752	0.31
43.96	4758	0.31
44.01	4764	0.31
44.06	4770	0.31
44.11	4776	0.31
44.16	4782	0.31
44.21	4788	0.31
44.26	4794	0.31
44.32	4800	0.31
44.37	4806	0.31
44.42	4812	0.31
44.47	4818	0.32
44.52	4824	0.32
44.57	4830	0.32
44.62	4836	0.32
44.67	4842	0.32
44.72	4848	0.32
44.77	4854	0.32
44.82	4860	0.32
44.87	4866	0.32
44.92	4872	0.32
44.97	4878	0.32
45.02	4884	0.33
45.07	4890	0.33
45.12	4896	0.33
45.17	4902	0.33
45.22	4908	0.33
45.27	4914	0.33
45.32	4920	0.33
45.38	4926	0.33
45.43	4932	0.33
45.48	4938	0.33
45.53	4944	0.33
45.58	4950	0.33
45.63	4956	0.33
45.68	4962	0.33
45.73	4968	0.34
45.78	4974	0.34
45.83	4980	0.34
45.88	4986	0.34
45.93	4992	0.34
45.98	4998	0.34
46.03	5004	0.34
46.08	5010	0.34
46.13	5016	0.34
46.18	5022	0.34
46.23	5028	0.34
46.29	5034	0.34
46.33	5040	0.35
46.38	5046	0.35
46.44	5052	0.35
46.49	5058	0.35
46.54	5064	0.35
46.59	5070	0.35
46.64	5076	0.35
46.68	5082	0.35
46.73	5088	0.35
46.79	5094	0.35
46.84	5100	0.35
46.89	5106	0.35
46.94	5112	0.35
46.99	5118	0.35
47.04	5124	0.35
47.09	5130	0.36
47.14	5136	0.36
47.19	5142	0.36
47.24	5148	0.36
47.29	5154	0.36
47.34	5160	0.36
47.39	5166	0.36
47.44	5172	0.36
47.49	5178	0.36
47.54	5184	0.36
47.60	5190	0.36
47.65	5196	0.36
47.70	5202	0.36
47.74	5208	0.36
47.80	5214	0.36
47.85	5220	0.36
47.90	5226	0.36
47.95	5232	0.37
48.00	5238	0.36
48.05	5244	0.37
48.10	5250	0.37
48.15	5256	0.37
48.20	5262	0.37
48.25	5268	0.37
48.30	5274	0.37
48.35	5280	0.37
48.40	5286	0.37
48.46	5292	0.37
48.52	5298	0.37
48.57	5304	0.37
48.61	5310	0.37
48.66	5316	0.37
48.71	5322	0.37
48.76	5328	0.37
48.81	5334	0.37
48.86	5340	0.37
48.91	5346	0.37
48.96	5352	0.37
49.01	5358	0.38
49.06	5364	0.38
49.11	5370	0.38
49.16	5376	0.38
49.22	5382	0.38
49.27	5388	0.38
49.32	5394	0.38
49.37	5400	0.38
49.42	5406	0.38
49.47	5412	0.38
49.52	5418	0.38
49.58	5424	0.38
49.63	5430	0.38
49.68	5436	0.38
49.73	5442	0.38
49.78	5448	0.38
49.82	5454	0.38
49.87	5460	0.38
49.92	5466	0.39
49.98	5472	0.38
50.03	5478	0.39
50.08	5484	0.38
50.13	5490	0.38
50.18	5496	0.39
50.23	5502	0.39
50.28	5508	0.39
50.33	5514	0.39
50.39	5520	0.39
50.44	5526	0.39
50.49	5532	0.39
50.54	5538	0.39
50.59	5544	0.39
50.64	5550	0.39
50.69	5556	0.39
50.74	5562	0.39
50.79	5568	0.39
50.84	5574	0.39
50.89	5580	0.39
50.94	5586	0.39
50.99	5592	0.39
51.04	5598	0.39
51.09	5604	0.39
51.14	5610	0.39
51.20	5616	0.39
51.25	5622	0.39
51.30	5628	0.39
51.35	5634	0.39
51.40	5640	0.39
51.45	5646	0.39
51.50	5652	0.39
51.55	5658	0.40
51.60	5664	0.39
51.65	5670	0.40
51.70	5676	0.40
51.75	5682	0.40
51.80	5688	0.40
51.85	5694	0.40
51.90	5700	0.40
51.95	5706	0.40
52.00	5712	0.40
52.05	5718	0.40
52.10	5724	0.40
52.16	5730	0.40
52.21	5736	0.40
52.25	5742	0.40
52.31	5748	0.40
52.36	5754	0.40
52.41	5760	0.40
52.46	5766	0.40
52.51	5772	0.40
52.56	5778	0.40
52.61	5784	0.40
52.66	5790	0.40
52.71	5796	0.40
52.76	5802	0.40
52.81	5808	0.40
52.86	5814	0.40
52.91	5820	0.40
52.96	5826	0.40
53.01	5832	0.40
53.06	5838	0.40
53.12	5844	0.40
53.17	5850	0.40
53.22	5856	0.40
53.27	5862	0.40
53.32	5868	0.41
53.37	5874	0.41
53.42	5880	0.41
53.47	5886	0.41
53.52	5892	0.41
53.57	5898	0.41
53.62	5904	0.41
53.67	5910	0.41
53.72	5916	0.41
53.77	5922	0.41
53.82	5928	0.41
53.87	5934	0.41
53.93	5940	0.41
53.97	5946	0.41
54.03	5952	0.41
54.08	5958	0.41
54.13	5964	0.41
54.18	5970	0.41
54.23	5976	0.41
54.28	5982	0.41
54.33	5988	0.41
54.38	5994	0.41
54.43	6000	0.41
54.48	6006	0.41
54.53	6012	0.41
54.58	6018	0.41
54.63	6024	0.41
54.68	6030	0.41
54.73	6036	0.41
54.78	6042	0.41
54.84	6048	0.41
54.89	6054	0.41
54.94	6060	0.41
54.99	6066	0.41
55.04	6072	0.41
55.09	6078	0.41
55.14	6084	0.41
55.19	6090	0.41
55.24	6096	0.42
55.29	6102	0.41
55.34	6108	0.41
55.39	6114	0.42
55.44	6120	0.42
55.49	6126	0.42
55.54	6132	0.42
55.60	6138	0.42
55.64	6144	0.42
55.69	6150	0.42
55.75	6156	0.42
55.80	6162	0.42
55.85	6168	0.42
55.90	6174	0.42
55.95	6180	0.42
56.00	6186	0.42
56.05	6192	0.42
56.10	6198	0.42
56.15	6204	0.42
56.20	6210	0.42
56.25	6216	0.42
56.30	6222	0.42
56.35	6228	0.42
56.40	6234	0.42
56.45	6240	0.42
56.50	6246	0.42
56.56	6252	0.42
56.61	6258	0.42
56.66	6264	0.42
56.71	6270	0.42
56.76	6276	0.42
56.81	6282	0.42
56.86	6288	0.42
56.91	6294	0.42
56.96	6300	0.42
57.01	6306	0.42
57.06	6312	0.42
57.11	6318	0.42
57.16	6324	0.42
57.21	6330	0.42
57.26	6336	0.42
57.31	6342	0.42
57.37	6348	0.42
57.42	6354	0.42
57.47	6360	0.42
57.52	6366	0.42
57.57	6372	0.42
57.62	6378	0.43
57.67	6384	0.42
57.72	6390	0.43
57.77	6396	0.43
57.82	6402	0.43
57.87	6408	0.42
57.92	6414	0.43
57.97	6420	0.43
58.02	6426	0.43
58.07	6432	0.43
58.12	6438	0.43
58.17	6444	0.43
58.23	6450	0.43
58.28	6456	0.43
58.33	6462	0.43
58.38	6468	0.43
58.43	6474	0.43
58.48	6480	0.43
58.53	6486	0.43
58.58	6492	0.43
58.63	6498	0.43
58.68	6504	0.43
58.73	6510	0.43
58.78	6516	0.43
58.83	6522	0.43
58.88	6528	0.43
58.93	6534	0.43
58.98	6540	0.43
59.04	6546	0.43
59.09	6552	0.43
59.14	6558	0.43
59.19	6564	0.43
59.24	6570	0.43
59.29	6576	0.43
59.34	6582	0.43
59.39	6588	0.43
59.44	6594	0.43
59.49	6600	0.43
59.54	6606	0.43
59.59	6612	0.43
59.64	6618	0.43
59.69	6624	0.43
59.74	6630	0.43
59.79	6636	0.43
59.84	6642	0.43
59.89	6648	0.43
59.95	6654	0.43
60.00	6660	0.43
60.05	6666	0.43
60.10	6672	0.43
60.15	6678	0.43
60.20	6684	0.43
60.25	6690	0.43
60.30	6696	0.43
60.35	6702	0.43
60.40	6708	0.43
60.45	6714	0.43
60.50	6720	0.43
60.55	6726	0.42
60.60	6732	0.42
60.65	6738	0.42
60.70	6744	0.42
60.76	6750	0.42
60.81	6756	0.42
60.86	6762	0.42
60.91	6768	0.42
60.96	6774	0.42
61.01	6780	0.42
61.06	6786	0.42
61.11	6792	0.42
61.16	6798	0.41
61.21	6804	0.41
61.26	6810	0.41
61.31	6816	0.41
61.36	6822	0.41
61.41	6828	0.41
61.46	6834	0.41
61.52	6840	0.41
61.57	6846	0.41
61.62	6852	0.41
61.67	6858	0.41
61.72	6864	0.40
61.77	6870	0.40
61.82	6876	0.40
61.87	6882	0.41
61.92	6888	0.40
61.97	6894	0.40
62.02	6900	0.40
62.07	6906	0.40
62.12	6912	0.40
62.17	6918	0.40
62.22	6924	0.40
62.27	6930	0.39
62.32	6936	0.39
62.37	6942	0.39
62.42	6948	0.39
62.48	6954	0.39
62.53	6960	0.39
62.58	6966	0.39
62.63	6972	0.39
62.68	6978	0.39
62.73	6984	0.39
62.78	6990	0.39
62.83	6996	0.39
62.88	7002	0.39
62.93	7008	0.39
62.98	7014	0.38
63.03	7020	0.38
63.08	7026	0.38
63.13	7032	0.38
63.18	7038	0.38
63.24	7044	0.38
63.29	7050	0.38
63.34	7056	0.38
63.39	7062	0.38
63.44	7068	0.38
63.49	7074	0.38
63.54	7080	0.38
63.59	7086	0.38
63.64	7092	0.38
63.69	7098	0.38
63.74	7104	0.38
63.79	7110	0.38
63.84	7116	0.38
63.89	7122	0.38
63.94	7128	0.38
63.99	7134	0.38
64.04	7140	0.38
64.09	7146	0.38
64.15	7152	0.38
64.20	7158	0.38
64.25	7164	0.38
64.30	7170	0.38
64.35	7176	0.38
64.40	7182	0.38
64.45	7188	0.39
64.50	7194	0.39
64.55	7200	0.39