File: rawdata/P85_3
P85
Furnace temperature 	Time	HeatFlow
/°C	/s	/mW
64.97	0	0.38
65.13	2	0.38
65.41	4	0.38
65.84	6	0.38
66.33	8	0.37
66.82	11	0.36
67.24	13	0.35
67.55	15	0.33
67.75	17	0.31
67.86	19	0.29
67.89	21	0.26
67.89	23	0.23
67.87	25	0.20
67.86	27	0.17
67.85	29	0.14
67.85	32	0.11
67.85	34	0.08
67.86	36	0.05
67.86	38	0.02
67.86	40	-0.01
67.85	42	-0.04
67.83	44	-0.08
67.81	46	-0.11
67.79	48	-0.14
67.77	50	-0.18
67.75	53	-0.21
67.72	55	-0.24
67.70	57	-0.27
67.68	59	-0.30
67.65	61	-0.33
67.62	63	-0.37
67.60	65	-0.39
67.57	67	-0.42
67.54	69	-0.45
67.51	71	-0.48
67.48	74	-0.50
67.45	76	-0.53
67.42	78	-0.55
67.38	80	-0.57
67.35	82	-0.60
67.32	84	-0.62
67.28	86	-0.64
67.25	88	-0.66
67.22	90	-0.68
67.18	92	-0.69
67.15	95	-0.71
67.11	97	-0.72
67.07	99	-0.74
67.04	101	-0.75
67.00	103	-0.76
66.96	105	-0.78
66.93	107	-0.79
66.89	109	-0.80
66.85	111	-0.81
66.82	113	-0.82
66.78	116	-0.84
66.74	118	-0.85
66.70	120	-0.86
66.66	122	-0.87
66.63	124	-0.88
66.59	126	-0.89
66.55	128	-0.91
66.51	130	-0.92
66.47	132	-0.94
66.43	134	-0.95
66.39	137	-0.96
66.35	139	-0.97
66.31	141	-0.98
66.27	143	-1.00
66.23	145	-1.01
66.19	147	-1.02
66.15	149	-1.04
66.11	151	-1.05
66.07	153	-1.06
66.03	155	-1.07
65.99	158	-1.08
65.95	160	-1.08
65.91	162	-1.09
65.90	164	-1.10
65.91	166	-1.10
65.90	168	-1.11
65.88	170	-1.12
65.84	172	-1.12
65.80	174	-1.13
65.75	176	-1.13
65.70	179	-1.13
65.65	181	-1.13
65.61	183	-1.14
65.57	185	-1.14
65.54	187	-1.14
65.51	189	-1.14
65.47	191	-1.14
65.44	193	-1.14
65.40	195	-1.14
65.36	197	-1.13
65.31	200	-1.13
65.27	202	-1.13
65.23	204	-1.13
65.18	206	-1.13
65.14	208	-1.13
65.10	210	-1.12
65.06	212	-1.12
65.02	214	-1.12
64.98	216	-1.11
64.94	218	-1.10
64.90	221	-1.10
64.85	223	-1.10
64.81	225	-1.09
64.77	227	-1.09
64.73	229	-1.09
64.68	231	-1.08
64.64	233	-1.08
64.60	235	-1.07
64.56	237	-1.07
64.51	239	-1.06
64.47	242	-1.06
64.43	244	-1.05
64.38	246	-1.05
64.34	248	-1.04
64.30	250	-1.04
64.25	252	-1.03
64.21	254	-1.03
64.17	256	-1.03
64.12	258	-1.03
64.08	260	-1.03
64.04	263	-1.02
63.99	265	-1.02
63.95	267	-1.01
63.91	269	-1.01
63.86	271	-1.01
63.82	273	-1.00
63.77	275	-1.00
63.73	277	-1.00
63.69	279	-0.99
63.64	281	-0.99
63.60	284	-0.99
63.56	286	-0.98
63.51	288	-0.98
63.47	290	-0.98
63.43	292	-0.98
63.38	294	-0.98
63.34	296	-0.98
63.29	298	-0.97
63.25	300	-0.97
63.21	302	-0.97
63.16	305	-0.97
63.12	307	-0.97
63.08	309	-0.97
63.03	311	-0.96
62.99	313	-0.96
62.95	315	-0.96
62.90	317	-0.96
62.86	319	-0.96
62.81	321	-0.95
62.77	323	-0.95
62.73	326	-0.95
62.68	328	-0.95
62.64	330	-0.96
62.59	332	-0.95
62.55	334	-0.95
62.51	336	-0.95
62.46	338	-0.95
62.42	340	-0.95
62.38	342	-0.96
62.33	344	-0.96
62.29	347	-0.95
62.25	349	-0.95
62.20	351	-0.96
62.16	353	-0.96
62.11	355	-0.96
62.07	357	-0.96
62.03	359	-0.96
61.98	361	-0.96
61.94	363	-0.96
61.90	365	-0.97
61.85	368	-0.97
61.81	370	-0.97
61.77	372	-0.97
61.72	374	-0.98
61.68	376	-0.98
61.64	378	-0.98
61.59	380	-0.98
61.55	382	-0.98
61.51	384	-0.98
61.46	386	-0.98
61.42	389	-0.98
61.37	391	-0.98
61.33	393	-0.99
61.29	395	-0.99
61.24	397	-0.99
61.20	399	-1.00
61.16	401	-1.00
61.11	403	-1.00
61.07	405	-1.00
61.03	407	-1.00
60.98	410	-1.01
60.94	412	-1.01
60.90	414	-1.01
60.85	416	-1.01
60.81	418	-1.01
60.77	420	-1.02
60.72	422	-1.02
60.68	424	-1.02
60.64	426	-1.02
60.59	428	-1.03
60.55	431	-1.03
60.51	433	-1.03
60.46	435	-1.03
60.42	437	-1.03
60.38	439	-1.03
60.34	441	-1.03
60.29	443	-1.04
60.25	445	-1.04
60.21	447	-1.04
60.16	449	-1.04
60.12	452	-1.04
60.08	454	-1.05
60.03	456	-1.05
59.99	458	-1.05
59.95	460	-1.05
59.90	462	-1.05
59.86	464	-1.06
59.82	466	-1.06
59.77	468	-1.06
59.73	470	-1.06
59.69	473	-1.06
59.64	475	-1.06
59.60	477	-1.06
59.56	479	-1.06
59.52	481	-1.06
59.47	483	-1.06
59.43	485	-1.06
59.39	487	-1.06
59.34	489	-1.07
59.30	491	-1.07
59.26	494	-1.07
59.21	496	-1.07
59.17	498	-1.07
59.13	500	-1.07
59.08	502	-1.07
59.04	504	-1.07
59.00	506	-1.07
58.96	508	-1.08
58.91	510	-1.07
58.87	512	-1.07
58.83	515	-1.08
58.79	517	-1.08
58.74	519	-1.07
58.70	521	-1.08
58.66	523	-1.08
58.61	525	-1.08
58.57	527	-1.08
58.53	529	-1.08
58.48	531	-1.08
58.44	533	-1.08
58.40	536	-1.08
58.36	538	-1.08
58.31	540	-1.08
58.27	542	-1.08
58.23	544	-1.08
58.18	546	-1.08
58.14	548	-1.08
58.10	550	-1.08
58.06	552	-1.08
58.01	554	-1.09
57.97	557	-1.09
57.93	559	-1.09
57.88	561	-1.09
57.84	563	-1.08
57.80	565	-1.09
57.76	567	-1.09
57.71	569	-1.09
57.67	571	-1.09
57.63	573	-1.09
57.58	575	-1.09
57.54	578	-1.09
57.50	580	-1.09
57.46	582	-1.09
57.41	584	-1.09
57.37	586	-1.09
57.33	588	-1.09
57.29	590	-1.08
57.24	592	-1.09
57.20	594	-1.09
57.16	596	-1.09
57.12	599	-1.09
57.07	601	-1.09
57.03	603	-1.09
56.99	605	-1.09
56.94	607	-1.09
56.90	609	-1.09
56.86	611	-1.09
56.82	613	-1.09
56.77	615	-1.09
56.73	617	-1.09
56.69	620	-1.09
56.65	622	-1.09
56.60	624	-1.09
56.56	626	-1.09
56.52	628	-1.09
56.47	630	-1.09
56.43	632	-1.09
56.39	634	-1.09
56.35	636	-1.09
56.30	638	-1.09
56.26	641	-1.09
56.22	643	-1.09
56.17	645	-1.09
56.13	647	-1.09
56.09	649	-1.09
56.05	651	-1.09
56.00	653	-1.09
55.96	655	-1.09
55.92	657	-1.09
55.88	659	-1.09
55.83	662	-1.09
55.79	664	-1.09
55.75	666	-1.09
55.71	668	-1.09
55.66	670	-1.09
55.62	672	-1.09
55.58	674	-1.09
55.53	676	-1.09
55.49	678	-1.09
55.45	680	-1.09
55.41	683	-1.09
55.36	685	-1.09
55.32	687	-1.09
55.28	689	-1.09
55.24	691	-1.09
55.19	693	-1.09
55.15	695	-1.09
55.11	697	-1.09
55.07	699	-1.09
55.02	701	-1.08
54.98	704	-1.08
54.94	706	-1.09
54.90	708	-1.09
54.85	710	-1.08
54.81	712	-1.08
54.77	714	-1.08
54.73	716	-1.08
54.68	718	-1.08
54.64	720	-1.08
54.60	722	-1.08
54.55	725	-1.08
54.51	727	-1.08
54.47	729	-1.08
54.43	731	-1.08
54.38	733	-1.08
54.34	735	-1.08
54.30	737	-1.08
54.26	739	-1.08
54.21	741	-1.08
54.17	743	-1.08
54.13	746	-1.08
54.09	748	-1.08
54.04	750	-1.08
54.00	752	-1.08
53.96	754	-1.08
53.92	756	-1.08
53.87	758	-1.08
53.83	760	-1.08
53.79	762	-1.08
53.75	764	-1.08
53.70	767	-1.08
53.66	769	-1.08
53.62	771	-1.08
53.58	773	-1.07
53.53	775	-1.07
53.49	777	-1.07
53.45	779	-1.07
53.41	781	-1.07
53.36	783	-1.07
53.32	785	-1.07
53.28	788	-1.07
53.23	790	-1.07
53.19	792	-1.07
53.15	794	-1.07
53.11	796	-1.07
53.06	798	-1.07
53.02	800	-1.07
52.98	802	-1.07
52.94	804	-1.07
52.90	806	-1.07
52.85	809	-1.07
52.81	811	-1.07
52.77	813	-1.07
52.72	815	-1.07
52.68	817	-1.07
52.64	819	-1.07
52.60	821	-1.07
52.55	823	-1.07
52.51	825	-1.07
52.47	827	-1.07
52.43	830	-1.07
52.38	832	-1.07
52.34	834	-1.07
52.30	836	-1.07
52.26	838	-1.07
52.21	840	-1.06
52.17	842	-1.06
52.13	844	-1.07
52.09	846	-1.07
52.04	848	-1.06
52.00	851	-1.06
51.96	853	-1.07
51.92	855	-1.07
51.87	857	-1.07
51.83	859	-1.07
51.79	861	-1.07
51.75	863	-1.06
51.70	865	-1.07
51.66	867	-1.07
51.62	869	-1.07
51.58	872	-1.07
51.53	874	-1.06
51.49	876	-1.06
51.45	878	-1.06
51.41	880	-1.06
51.36	882	-1.06
51.32	884	-1.06
51.28	886	-1.06
51.23	888	-1.06
51.19	890	-1.06
51.15	893	-1.06
51.11	895	-1.06
51.07	897	-1.06
51.02	899	-1.06
50.98	901	-1.06
50.94	903	-1.06
50.89	905	-1.06
50.85	907	-1.06
50.81	909	-1.06
50.77	911	-1.06
50.73	914	-1.06
50.68	916	-1.05
50.64	918	-1.05
50.60	920	-1.06
50.56	922	-1.06
50.51	924	-1.06
50.47	926	-1.05
50.43	928	-1.05
50.38	930	-1.06
50.34	932	-1.05
50.30	935	-1.05
50.26	937	-1.05
50.22	939	-1.05
50.17	941	-1.05
50.13	943	-1.05
50.09	945	-1.05
50.04	947	-1.05
50.00	949	-1.05
49.96	951	-1.05
49.92	953	-1.05
49.87	956	-1.05
49.83	958	-1.05
49.79	960	-1.05
49.75	962	-1.05
49.71	964	-1.05
49.66	966	-1.05
49.62	968	-1.05
49.58	970	-1.05
49.53	972	-1.05
49.49	974	-1.04
49.45	977	-1.04
49.41	979	-1.04
49.36	981	-1.04
49.32	983	-1.04
49.28	985	-1.04
49.24	987	-1.04
49.19	989	-1.04
49.15	991	-1.04
49.11	993	-1.04
49.07	995	-1.04
49.02	998	-1.04
48.98	1000	-1.04
48.94	1002	-1.04
48.90	1004	-1.03
48.85	1006	-1.03
48.81	1008	-1.04
48.77	1010	-1.04
48.73	1012	-1.04
48.68	1014	-1.04
48.64	1016	-1.04
48.60	1019	-1.03
48.56	1021	-1.03
48.51	1023	-1.03
48.47	1025	-1.03
48.43	1027	-1.03
48.39	1029	-1.03
48.34	1031	-1.03
48.30	1033	-1.03
48.26	1035	-1.03
48.22	1037	-1.03
48.17	1040	-1.03
48.13	1042	-1.03
48.09	1044	-1.03
48.05	1046	-1.03
48.00	1048	-1.03
47.96	1050	-1.03
47.92	1052	-1.02
47.88	1054	-1.02
47.83	1056	-1.02
47.79	1058	-1.02
47.75	1061	-1.02
47.71	1063	-1.02
47.66	1065	-1.02
47.62	1067	-1.02
47.58	1069	-1.02
47.54	1071	-1.02
47.49	1073	-1.02
47.45	1075	-1.02
47.41	1077	-1.01
47.37	1079	-1.01
47.32	1082	-1.02
47.28	1084	-1.01
47.24	1086	-1.01
47.19	1088	-1.01
47.15	1090	-1.01
47.11	1092	-1.01
47.07	1094	-1.01
47.03	1096	-1.01
46.98	1098	-1.01
46.94	1100	-1.01
46.90	1103	-1.01
46.86	1105	-1.00
46.81	1107	-1.00
46.77	1109	-1.00
46.73	1111	-1.00
46.69	1113	-1.00
46.64	1115	-1.00
46.60	1117	-1.00
46.56	1119	-1.00
46.52	1121	-1.00
46.47	1124	-1.00
46.43	1126	-1.00
46.39	1128	-1.00
46.35	1130	-0.99
46.30	1132	-0.99
46.26	1134	-0.99
46.22	1136	-0.99
46.18	1138	-0.99
46.13	1140	-0.99
46.09	1142	-0.99
46.05	1145	-0.99
46.00	1147	-0.98
45.96	1149	-0.98
45.92	1151	-0.98
45.88	1153	-0.98
45.84	1155	-0.98
45.79	1157	-0.98
45.75	1159	-0.98
45.71	1161	-0.98
45.67	1163	-0.98
45.62	1166	-0.98
45.58	1168	-0.98
45.54	1170	-0.97
45.50	1172	-0.97
45.45	1174	-0.97
45.41	1176	-0.97
45.37	1178	-0.97
45.33	1180	-0.97
45.28	1182	-0.97
45.24	1184	-0.97
45.20	1187	-0.97
45.16	1189	-0.97
45.11	1191	-0.96
45.07	1193	-0.96
45.03	1195	-0.96
44.98	1197	-0.96
44.94	1199	-0.96
44.90	1201	-0.96
44.86	1203	-0.95
44.82	1205	-0.95
44.77	1208	-0.95
44.73	1210	-0.95
44.69	1212	-0.95
44.65	1214	-0.95
44.60	1216	-0.95
44.56	1218	-0.95
44.52	1220	-0.94
44.47	1222	-0.94
44.43	1224	-0.94
44.39	1226	-0.94
44.35	1229	-0.94
44.31	1231	-0.94
44.26	1233	-0.94
44.22	1235	-0.94
44.18	1237	-0.93
44.14	1239	-0.93
44.09	1241	-0.93
44.05	1243	-0.93
44.01	1245	-0.93
43.96	1247	-0.93
43.92	1250	-0.92
43.88	1252	-0.93
43.84	1254	-0.92
43.80	1256	-0.92
43.75	1258	-0.92
43.71	1260	-0.92
43.67	1262	-0.91
43.63	1264	-0.91
43.58	1266	-0.91
43.54	1268	-0.91
43.50	1271	-0.91
43.46	1273	-0.90
43.41	1275	-0.90
43.37	1277	-0.90
43.33	1279	-0.90
43.29	1281	-0.90
43.24	1283	-0.90
43.20	1285	-0.89
43.16	1287	-0.89
43.12	1289	-0.89
43.07	1292	-0.89
43.03	1294	-0.89
42.99	1296	-0.88
42.94	1298	-0.88
42.90	1300	-0.88
42.86	1302	-0.88
42.82	1304	-0.88
42.78	1306	-0.88
42.73	1308	-0.87
42.69	1310	-0.87
42.65	1313	-0.87
42.60	1315	-0.87
42.56	1317	-0.86
42.52	1319	-0.86
42.48	1321	-0.86
42.44	1323	-0.86
42.39	1325	-0.86
42.35	1327	-0.85
42.31	1329	-0.85
42.27	1331	-0.85
42.22	1334	-0.85
42.18	1336	-0.84
42.14	1338	-0.84
42.09	1340	-0.84
42.05	1342	-0.84
42.01	1344	-0.83
41.97	1346	-0.83
41.93	1348	-0.83
41.88	1350	-0.83
41.84	1352	-0.83
41.80	1355	-0.82
41.76	1357	-0.82
41.71	1359	-0.81
41.67	1361	-0.81
41.63	1363	-0.81
41.59	1365	-0.81
41.54	1367	-0.80
41.50	1369	-0.80
41.46	1371	-0.80
41.42	1373	-0.80
41.37	1376	-0.80
41.33	1378	-0.79
41.29	1380	-0.79
41.25	1382	-0.79
41.20	1384	-0.78
41.16	1386	-0.78
41.12	1388	-0.78
41.08	1390	-0.77
41.03	1392	-0.77
40.99	1394	-0.77
40.95	1397	-0.77
40.91	1399	-0.76
40.86	1401	-0.76
40.82	1403	-0.76
40.78	1405	-0.75
40.74	1407	-0.75
40.69	1409	-0.75
40.65	1411	-0.74
40.61	1413	-0.74
40.57	1415	-0.74
40.52	1418	-0.73
40.48	1420	-0.73
40.44	1422	-0.73
40.40	1424	-0.72
40.35	1426	-0.72
40.31	1428	-0.72
40.27	1430	-0.72
40.23	1432	-0.71
40.18	1434	-0.71
40.14	1436	-0.70
40.10	1439	-0.70
40.06	1441	-0.69
40.01	1443	-0.69
39.97	1445	-0.69
39.93	1447	-0.68
39.89	1449	-0.68
39.84	1451	-0.68
39.80	1453	-0.67
39.76	1455	-0.67
39.72	1457	-0.66
39.67	1460	-0.66
39.63	1462	-0.66
39.59	1464	-0.65
39.55	1466	-0.65
39.50	1468	-0.64
39.46	1470	-0.64
39.42	1472	-0.64
39.38	1474	-0.63
39.33	1476	-0.63
39.29	1478	-0.62
39.25	1481	-0.62
39.21	1483	-0.61
39.16	1485	-0.61
39.12	1487	-0.60
39.08	1489	-0.60
39.03	1491	-0.60
38.99	1493	-0.59
38.95	1495	-0.59
38.91	1497	-0.58
38.87	1499	-0.58
38.82	1502	-0.58
38.78	1504	-0.57
38.74	1506	-0.56
38.70	1508	-0.56
38.65	1510	-0.55
38.61	1512	-0.55
38.57	1514	-0.54
38.53	1516	-0.54
38.48	1518	-0.53
38.44	1520	-0.53
38.40	1523	-0.52
38.36	1525	-0.52
38.31	1527	-0.51
38.27	1529	-0.51
38.23	1531	-0.50
38.19	1533	-0.50
38.14	1535	-0.49
38.10	1537	-0.48
38.06	1539	-0.48
38.02	1541	-0.47
37.97	1544	-0.47
37.93	1546	-0.46
37.89	1548	-0.46
37.85	1550	-0.45
37.80	1552	-0.44
37.76	1554	-0.44
37.72	1556	-0.43
37.68	1558	-0.42
37.63	1560	-0.42
37.59	1562	-0.41
37.55	1565	-0.41
37.51	1567	-0.40
37.46	1569	-0.39
37.42	1571	-0.39
37.38	1573	-0.38
37.34	1575	-0.37
37.29	1577	-0.37
37.25	1579	-0.36
37.21	1581	-0.35
37.17	1583	-0.34
37.12	1586	-0.34
37.08	1588	-0.33
37.04	1590	-0.32
37.00	1592	-0.32
36.95	1594	-0.31
36.91	1596	-0.30
36.87	1598	-0.29
36.83	1600	-0.29
36.78	1602	-0.28
36.74	1604	-0.27
36.70	1607	-0.26
36.66	1609	-0.25
36.61	1611	-0.25
36.57	1613	-0.24
36.53	1615	-0.23
36.49	1617	-0.22
36.45	1619	-0.22
36.40	1621	-0.21
36.36	1623	-0.20
36.32	1625	-0.19
36.27	1628	-0.18
36.23	1630	-0.17
36.19	1632	-0.17
36.15	1634	-0.15
36.10	1636	-0.15
36.06	1638	-0.14
36.02	1640	-0.13
35.98	1642	-0.12
35.94	1644	-0.11
35.89	1646	-0.10
35.85	1649	-0.09
35.81	1651	-0.08
35.76	1653	-0.07
35.72	1655	-0.06
35.68	1657	-0.06
35.64	1659	-0.05
35.59	1661	-0.04
35.55	1663	-0.03
35.51	1665	-0.01
35.47	1667	-0.00
35.43	1670	0.00
35.38	1672	0.02
35.34	1674	0.03
35.30	1676	0.04
35.25	1678	0.05
35.21	1680	0.06
35.17	1682	0.07
35.13	1684	0.08
35.09	1686	0.09
35.04	1688	0.10
35.00	1691	0.12
34.96	1693	0.13
34.92	1695	0.14
34.87	1697	0.15
34.83	1699	0.16
34.79	1701	0.17
34.75	1703	0.18
34.70	1705	0.20
34.66	1707	0.21
34.62	1709	0.22
34.58	1712	0.23
34.53	1714	0.24
34.49	1716	0.26
34.45	1718	0.27
34.41	1720	0.28
34.36	1722	0.30
34.32	1724	0.31
34.28	1726	0.32
34.23	1728	0.33
34.19	1730	0.34
34.15	1733	0.36
34.11	1735	0.37
34.07	1737	0.39
34.02	1739	0.40
33.98	1741	0.42
33.94	1743	0.43
33.90	1745	0.44
33.85	1747	0.46
33.81	1749	0.47
33.77	1751	0.48
33.73	1754	0.50
33.68	1756	0.52
33.64	1758	0.53
33.60	1760	0.54
33.56	1762	0.56
33.51	1764	0.57
33.47	1766	0.59
33.43	1768	0.60
33.39	1770	0.62
33.34	1772	0.63
33.30	1775	0.65
33.26	1777	0.67
33.22	1779	0.68
33.17	1781	0.70
33.13	1783	0.72
33.09	1785	0.73
33.05	1787	0.75
33.00	1789	0.77
32.96	1791	0.78
32.92	1793	0.80
32.88	1796	0.81
32.83	1798	0.83
32.79	1800	0.85
32.75	1802	0.87
32.71	1804	0.88
32.66	1806	0.90
32.62	1808	0.92
32.58	1810	0.93
32.54	1812	0.95
32.49	1814	0.97
32.45	1817	0.99
32.41	1819	1.01
32.37	1821	1.02
32.33	1823	1.04
32.28	1825	1.06
32.24	1827	1.08
32.20	1829	1.10
32.15	1831	1.12
32.11	1833	1.14
32.07	1835	1.16
32.03	1838	1.18
31.99	1840	1.20
31.94	1842	1.22
31.90	1844	1.24
31.86	1846	1.26
31.82	1848	1.28
31.77	1850	1.30
31.73	1852	1.32
31.69	1854	1.34
31.65	1856	1.36
31.60	1859	1.38
31.56	1861	1.40
31.52	1863	1.42
31.48	1865	1.44
31.43	1867	1.46
31.39	1869	1.49
31.35	1871	1.51
31.31	1873	1.53
31.26	1875	1.55
31.22	1877	1.57
31.18	1880	1.59
31.14	1882	1.62
31.09	1884	1.64
31.05	1886	1.66
31.01	1888	1.68
30.97	1890	1.71
30.92	1892	1.73
30.88	1894	1.75
30.84	1896	1.77
30.80	1898	1.80
30.75	1901	1.82
30.71	1903	1.84
30.67	1905	1.87
30.63	1907	1.89
30.58	1909	1.91
30.54	1911	1.94
30.50	1913	1.96
30.46	1915	1.99
30.41	1917	2.01
30.37	1919	2.03
30.33	1922	2.06
30.29	1924	2.08
30.24	1926	2.11
30.20	1928	2.13
30.16	1930	2.15
30.12	1932	2.18
30.07	1934	2.21
30.03	1936	2.23
29.99	1938	2.25
29.95	1940	2.28
29.91	1943	2.30
29.86	1945	2.33
29.82	1947	2.35
29.78	1949	2.38
29.73	1951	2.41
29.69	1953	2.43
29.65	1955	2.45
29.61	1957	2.48
29.57	1959	2.50
29.52	1961	2.53
29.48	1964	2.55
29.44	1966	2.58
29.40	1968	2.60
29.35	1970	2.63
29.31	1972	2.65
29.27	1974	2.68
29.23	1976	2.71
29.18	1978	2.73
29.14	1980	2.76
29.10	1982	2.78
29.06	1985	2.81
29.01	1987	2.83
28.97	1989	2.86
28.93	1991	2.88
28.89	1993	2.91
28.84	1995	2.93
28.80	1997	2.96
28.76	1999	2.98
28.72	2001	3.01
28.67	2003	3.03
28.63	2006	3.06
28.59	2008	3.08
28.55	2010	3.11
28.50	2012	3.13
28.46	2014	3.16
28.42	2016	3.18
28.38	2018	3.20
28.33	2020	3.23
28.29	2022	3.25
28.25	2024	3.28
28.21	2027	3.30
28.16	2029	3.32
28.12	2031	3.35
28.08	2033	3.37
28.04	2035	3.39
27.99	2037	3.41
27.95	2039	3.44
27.91	2041	3.46
27.87	2043	3.48
27.82	2045	3.51
27.78	2048	3.53
27.74	2050	3.55
27.70	2052	3.57
27.66	2054	3.59
27.61	2056	3.61
27.57	2058	3.63
27.53	2060	3.65
27.48	2062	3.67
27.44	2064	3.69
27.40	2066	3.71
27.36	2069	3.73
27.32	2071	3.75
27.27	2073	3.76
27.23	2075	3.78
27.19	2077	3.80
27.15	2079	3.81
27.10	2081	3.83
27.06	2083	3.85
27.02	2085	3.86
26.98	2087	3.88
26.93	2090	3.89
26.89	2092	3.90
26.85	2094	3.92
26.81	2096	3.93
26.76	2098	3.94
26.72	2100	3.95
26.68	2102	3.96
26.64	2104	3.97
26.59	2106	3.98
26.55	2108	3.99
26.51	2111	3.99
26.47	2113	4.00
26.42	2115	4.01
26.38	2117	4.01
26.34	2119	4.01
26.30	2121	4.01
26.25	2123	4.02
26.21	2125	4.02
26.17	2127	4.02
26.13	2129	4.02
26.09	2132	4.01
26.04	2134	4.01
26.00	2136	4.01
25.96	2138	4.00
25.92	2140	3.99
25.87	2142	3.99
25.83	2144	3.98
25.79	2146	3.97
25.75	2148	3.96
25.70	2150	3.94
25.66	2153	3.93
25.62	2155	3.91
25.58	2157	3.90
25.53	2159	3.88
25.49	2161	3.86
25.45	2163	3.84
25.41	2165	3.82
25.36	2167	3.79
25.32	2169	3.77
25.28	2171	3.74
25.24	2174	3.72
25.19	2176	3.68
25.15	2178	3.65
25.11	2180	3.62
25.07	2182	3.58
25.02	2184	3.55
24.98	2186	3.51
24.94	2188	3.47
24.90	2190	3.43
24.85	2192	3.39
24.81	2195	3.35
24.77	2197	3.30
24.73	2199	3.26
24.68	2201	3.21
24.64	2203	3.16
24.60	2205	3.11
24.56	2207	3.06
24.51	2209	3.01
24.47	2211	2.95
24.43	2213	2.90
24.39	2216	2.84
24.34	2218	2.78
24.30	2220	2.73
24.26	2222	2.66
24.22	2224	2.60
24.18	2226	2.54
24.13	2228	2.48
24.09	2230	2.42
24.05	2232	2.36
24.01	2234	2.30
23.97	2237	2.24
23.93	2239	2.17
23.89	2241	2.11
23.84	2243	2.05
23.80	2245	1.99
23.76	2247	1.93
23.72	2249	1.87
23.68	2251	1.81
23.63	2253	1.75
23.59	2255	1.69
23.55	2258	1.64
23.51	2260	1.58
23.46	2262	1.53
23.42	2264	1.47
23.38	2266	1.42
23.34	2268	1.37
23.29	2270	1.32
23.25	2272	1.27
23.21	2274	1.22
23.16	2276	1.17
23.12	2279	1.12
23.08	2281	1.08
23.04	2283	1.04
22.99	2285	0.99
22.95	2287	0.95
22.91	2289	0.91
22.87	2291	0.87
22.82	2293	0.83
22.78	2295	0.79
22.74	2297	0.75
22.70	2300	0.71
22.65	2302	0.68
22.61	2304	0.64
22.57	2306	0.61
22.53	2308	0.57
22.48	2310	0.54
22.44	2312	0.51
22.40	2314	0.48
22.36	2316	0.45
22.31	2318	0.42
22.27	2321	0.39
22.23	2323	0.36
22.19	2325	0.33
22.15	2327	0.30
22.10	2329	0.28
22.06	2331	0.25
22.02	2333	0.23
21.97	2335	0.20
21.93	2337	0.18
21.89	2339	0.15
21.85	2342	0.13
21.80	2344	0.11
21.76	2346	0.09
21.72	2348	0.07
21.68	2350	0.05
21.63	2352	0.03
21.59	2354	0.01
21.55	2356	-0.01
21.51	2358	-0.03
21.46	2360	-0.05
21.42	2363	-0.07
21.38	2365	-0.09
21.34	2367	-0.10
21.29	2369	-0.12
21.25	2371	-0.14
21.21	2373	-0.16
21.17	2375	-0.17
21.12	2377	-0.18
21.08	2379	-0.20
21.04	2381	-0.21
21.00	2384	-0.23
20.95	2386	-0.24
20.91	2388	-0.26
20.87	2390	-0.27
20.83	2392	-0.29
20.78	2394	-0.30
20.74	2396	-0.31
20.70	2398	-0.32
20.66	2400	-0.33
20.61	2402	-0.34
20.57	2405	-0.35
20.53	2407	-0.37
20.49	2409	-0.38
20.45	2411	-0.39
20.40	2413	-0.40
20.36	2415	-0.41
20.32	2417	-0.42
20.28	2419	-0.43
20.23	2421	-0.44
20.19	2423	-0.45
20.15	2426	-0.46
20.11	2428	-0.46
20.06	2430	-0.47
20.02	2432	-0.48
19.98	2434	-0.49
19.94	2436	-0.50
19.89	2438	-0.51
19.85	2440	-0.51
19.81	2442	-0.52
19.77	2444	-0.53
19.72	2447	-0.54
19.68	2449	-0.54
19.64	2451	-0.55
19.60	2453	-0.56
19.55	2455	-0.56
19.51	2457	-0.57
19.47	2459	-0.58
19.43	2461	-0.59
19.38	2463	-0.59
19.34	2465	-0.60
19.30	2468	-0.60
19.26	2470	-0.61
19.21	2472	-0.61
19.17	2474	-0.62
19.13	2476	-0.62
19.09	2478	-0.63
19.04	2480	-0.63
19.00	2482	-0.64
18.96	2484	-0.64
18.92	2486	-0.65
18.88	2489	-0.65
18.83	2491	-0.66
18.79	2493	-0.66
18.75	2495	-0.67
18.71	2497	-0.67
18.66	2499	-0.68
18.62	2501	-0.68
18.58	2503	-0.69
18.54	2505	-0.69
18.49	2507	-0.70
18.45	2510	-0.70
18.41	2512	-0.70
18.37	2514	-0.71
18.32	2516	-0.71
18.28	2518	-0.71
18.24	2520	-0.72
18.20	2522	-0.72
18.15	2524	-0.73
18.11	2526	-0.73
18.07	2528	-0.74
18.03	2531	-0.74
17.99	2533	-0.74
17.94	2535	-0.74
17.90	2537	-0.75
17.86	2539	-0.75
17.82	2541	-0.75
17.77	2543	-0.76
17.73	2545	-0.76
17.69	2547	-0.76
17.65	2549	-0.77
17.60	2552	-0.77
17.56	2554	-0.77
17.52	2556	-0.78
17.48	2558	-0.78
17.44	2560	-0.78
17.39	2562	-0.78
17.35	2564	-0.79
17.31	2566	-0.79
17.27	2568	-0.79
17.22	2570	-0.79
17.18	2573	-0.80
17.14	2575	-0.80
17.10	2577	-0.80
17.05	2579	-0.80
17.01	2581	-0.81
16.97	2583	-0.81
16.93	2585	-0.81
16.88	2587	-0.81
16.84	2589	-0.82
16.80	2591	-0.82
16.76	2594	-0.82
16.72	2596	-0.83
16.67	2598	-0.83
16.63	2600	-0.83
16.59	2602	-0.83
16.55	2604	-0.83
16.51	2606	-0.83
16.46	2608	-0.84
16.42	2610	-0.84
16.38	2612	-0.84
16.34	2615	-0.84
16.29	2617	-0.85
16.25	2619	-0.85
16.21	2621	-0.85
16.17	2623	-0.85
16.12	2625	-0.85
16.08	2627	-0.86
16.04	2629	-0.86
16.00	2631	-0.86
15.96	2633	-0.86
15.91	2636	-0.86
15.87	2638	-0.86
15.83	2640	-0.87
15.79	2642	-0.87
15.74	2644	-0.87
15.70	2646	-0.87
15.66	2648	-0.87
15.62	2650	-0.88
15.58	2652	-0.88
15.53	2654	-0.88
15.49	2657	-0.88
15.45	2659	-0.88
15.41	2661	-0.89
15.37	2663	-0.89
15.32	2665	-0.89
15.28	2667	-0.89
15.24	2669	-0.89
15.20	2671	-0.90
15.15	2673	-0.90
15.11	2675	-0.90
15.07	2678	-0.90
15.03	2680	-0.90
14.98	2682	-0.90
14.94	2684	-0.91
14.90	2686	-0.91
14.86	2688	-0.91
14.82	2690	-0.91
14.77	2692	-0.91
14.73	2694	-0.91
14.69	2696	-0.92
14.65	2699	-0.92
14.61	2701	-0.92
14.56	2703	-0.92
14.52	2705	-0.92
14.48	2707	-0.92
14.44	2709	-0.92
14.40	2711	-0.93
14.35	2713	-0.93
14.31	2715	-0.93
14.27	2717	-0.93
14.23	2720	-0.93
14.18	2722	-0.93
14.14	2724	-0.93
14.10	2726	-0.94
14.06	2728	-0.94
14.02	2730	-0.94
13.97	2732	-0.94
13.93	2734	-0.94
13.89	2736	-0.94
13.85	2738	-0.94
13.80	2741	-0.94
13.76	2743	-0.95
13.72	2745	-0.95
13.68	2747	-0.95
13.64	2749	-0.95
13.59	2751	-0.95
13.55	2753	-0.95
13.51	2755	-0.95
13.47	2757	-0.96
13.43	2759	-0.96
13.38	2762	-0.96
13.34	2764	-0.96
13.30	2766	-0.96
13.26	2768	-0.96
13.22	2770	-0.96
13.17	2772	-0.96
13.13	2774	-0.96
13.09	2776	-0.97
13.05	2778	-0.97
13.01	2780	-0.97
12.96	2783	-0.97
12.92	2785	-0.97
12.88	2787	-0.97
12.84	2789	-0.97
12.80	2791	-0.98
12.75	2793	-0.98
12.71	2795	-0.98
12.67	2797	-0.98
12.63	2799	-0.98
12.59	2801	-0.98
12.54	2804	-0.98
12.50	2806	-0.98
12.46	2808	-0.98
12.42	2810	-0.99
12.38	2812	-0.99
12.33	2814	-0.99
12.29	2816	-0.99
12.25	2818	-0.99
12.21	2820	-0.99
12.17	2822	-0.99
12.13	2825	-0.99
12.08	2827	-1.00
12.04	2829	-1.00
12.00	2831	-1.00
11.96	2833	-1.00
11.92	2835	-1.00
11.87	2837	-1.00
11.83	2839	-1.00
11.79	2841	-1.00
11.75	2843	-1.00
11.71	2846	-1.00
11.66	2848	-1.00
11.62	2850	-1.00
11.58	2852	-1.00
11.54	2854	-1.00
11.50	2856	-1.00
11.46	2858	-1.01
11.41	2860	-1.01
11.37	2862	-1.01
11.33	2864	-1.01
11.29	2867	-1.01
11.25	2869	-1.01
11.20	2871	-1.01
11.16	2873	-1.01
11.12	2875	-1.01
11.08	2877	-1.01
11.04	2879	-1.01
11.00	2881	-1.01
10.96	2883	-1.01
10.91	2885	-1.01
10.87	2888	-1.01
10.83	2890	-1.01
10.79	2892	-1.01
10.75	2894	-1.01
10.71	2896	-1.01
10.66	2898	-1.01
10.62	2900	-1.01
10.58	2902	-1.01
10.54	2904	-1.01
10.50	2906	-1.01
10.46	2909	-1.01
10.42	2911	-1.01
10.37	2913	-1.01
10.33	2915	-1.01
10.29	2917	-1.01
10.25	2919	-1.01
10.21	2921	-1.01
10.17	2923	-1.01
10.13	2925	-1.01
10.08	2927	-1.00
10.04	2930	-1.00
10.00	2932	-1.00
9.96	2934	-1.00
9.92	2936	-1.00
9.88	2938	-1.00
9.84	2940	-1.00
9.80	2942	-1.00
9.76	2944	-1.00
9.71	2946	-1.00
9.67	2948	-1.00
9.63	2951	-0.99
9.59	2953	-0.99
9.55	2955	-0.99
9.51	2957	-0.99
9.47	2959	-0.99
9.43	2961	-0.99
9.39	2963	-0.99
9.35	2965	-0.99
9.31	2967	-0.99
9.26	2969	-0.98
9.22	2972	-0.98
9.18	2974	-0.98
9.14	2976	-0.98
9.10	2978	-0.98
9.06	2980	-0.98
9.02	2982	-0.98
8.98	2984	-0.98
8.94	2986	-0.97
8.90	2988	-0.97
8.86	2990	-0.97
8.82	2993	-0.97
8.78	2995	-0.97
8.74	2997	-0.97
8.70	2999	-0.97
8.68	3000	-0.97