File: rawdata/SM_EC-EC_c1.txt
 SM_EC_EC
Creation Date : 12/21/2018 12:43:14 PM
User : PSCM

HeatFlow :
 Initial Mass : 0 mg
 Molar Mass : N/A

Index Time (s)   Furnace Temperature (Â°C) HeatFlow (mW)
1     0          82.9646                -0.213271
16    4.5        82.85166                 -0.200664
31    9          83.2561                -0.190844
46    13.5       83.8596                -0.186913
61    18         84.2708                -0.186724
76    22.5       84.4866                -0.188184
91    27         84.4852                -0.185027
106   31.5       84.4253                -0.176654
121   36         84.4451                -0.160221
136   40.5       84.4523                -0.137521
151   45         84.4234                -0.110746
166   49.5       84.37933                 -0.075186
181   54         84.3337                -0.037328
196   58.5       84.3079                0.009815
211   63         84.26036                 0.057347
226   67.5       84.205                0.111942
241   72         84.141                0.172383
256   76.5       84.079                0.236592
271   81         84.0248                0.299108
286   85.5       83.9661                0.364621
301   90         83.8929                0.432034
316   94.5       83.8301                0.501038
331   99         83.7598                0.573626
346   103.5      83.6916                0.645317
361   108        83.6284                0.714916
376   112.5      83.5568                0.785308
391   117        83.4884                0.859422
406   121.5      83.4143                0.930028
421   126        83.3401                0.999719
436   130.5      83.2695                1.069608
451   135        83.1971                1.13855
466   139.5      83.1237                1.205754
481   144        83.0495                1.272139
496   148.5      82.9747                1.337526
511   153        82.9006                1.401481
526   157.5      82.82574                 1.461807
541   162        82.75035                 1.522058
556   166.5      82.6887                1.583494
571   171        82.6837                1.639554
586   175.5      82.6449                1.696293
601   180        82.5655                1.748377
616   184.5      82.4759                1.799442
631   189        82.3948                1.847118
646   193.5      82.3274                1.893543
661   198        82.2646                1.941974
676   202.5      82.1859                1.984419
691   207        82.1044                2.026349
706   211.5      82.0264                2.067395
721   216        81.9512                2.106935
736   220.5      81.8795                2.144951
751   225        81.7921                2.177241
766   229.5      81.7123                2.21123
781   234        81.6311                2.240656
796   238.5      81.55921                 2.271026
811   243        81.484                2.297607
826   247.5      81.3948                2.323876
841   252        81.3125                2.347502
856   256.5      81.2415                2.375893
871   261        81.1623                2.401613
886   265.5      81.0846                2.424558
901   270        81.00325                 2.44881
916   274.5      80.9149                2.466062
931   279        80.8351                2.487998
946   283.5      80.7558                2.506901
961   288        80.68233                 2.521641
976   292.5      80.6065                2.539027
991   297        80.5152                2.553194
1006  301.5      80.4405                2.569411
1021  306        80.35675                 2.584064
1036  310.5      80.2807                2.599623
1051  315        80.20354                 2.611577
1066  319.5      80.1164                2.627296
1081  324        80.0391                2.638636
1096  328.5      79.9497                2.650616
1111  333        79.8794                2.660762
1126  337.5      79.7998                2.671535
1141  342        79.7161                2.681234
1156  346.5      79.6364                2.692759
1171  351        79.5577                2.700531
1186  355.5      79.4797                2.710754
1201  360        79.4024                2.717137
1216  364.5      79.3132                2.723546
1231  369        79.2345                2.731154
1246  373.5      79.154                2.737525
1261  378        79.0793                2.744719
1276  382.5      79.0103                2.748249
1291  387        78.9222                2.750864
1306  391.5      78.8393                2.753188
1321  396        78.7626                2.757178
1336  400.5      78.6858                2.760755
1351  405        78.6104                2.764388
1366  409.5      78.5264                2.766131
1381  414        78.4418                2.767509
1396  418.5      78.3606                2.768515
1411  423        78.2866                2.769074
1426  427.5      78.2112                2.77179
1441  432        78.12626                 2.773805
1456  436.5      78.04185                 2.77238
1471  441        77.974                2.77243
1486  445.5      77.8921                2.775153
1501  450        77.8168                2.775065
1516  454.5      77.7396                2.778205
1531  459        77.6516                2.779154
1546  463.5      77.5756                2.780607
1561  468        77.4904                2.777194
1576  472.5      77.4177                2.778664
1591  477        77.3483                2.779309
1606  481.5      77.26233                 2.777194
1621  486        77.1794                2.778838
1636  490.5      77.10052                 2.779088
1651  495        77.027                   2.775802
1666  499.5      76.9549                2.777235
1681  504        76.86682                 2.77566
1696  508.5      76.7828                2.775373
1711  513        76.70277                 2.77848
1726  517.5      76.6312                2.776821
1741  522        76.56                2.779176
1756  526.5      76.4692                2.782633
1771  531        76.3897                2.784449
1786  535.5      76.3182                2.782502
1801  540        76.2421                2.780597
1816  544.5      76.164                2.781165
1831  549        76.07992                 2.783481
1846  553.5      75.9946                2.779826
1861  558        75.9239                2.778866
1876  562.5      75.8423                2.779002
1891  567        75.76761                 2.7773
1906  571.5      75.6956                2.780151
1921  576        75.6124                2.782858
1936  580.5      75.5333                2.785754
1951  585        75.451                2.790961
1966  589.5      75.3781                2.795375
1981  594        75.305                2.798693
1996  598.5      75.2171                2.801241
2011  603        75.13614                 2.801916
2026  607.5      75.0568                2.802314
2041  612        74.9831                2.803031
2056  616.5      74.91217                 2.802489
2071  621        74.82433                 2.803014
2086  625.5      74.7439                2.800379
2101  630        74.6733                2.800704
2116  634.5      74.5977                2.79973
2131  639        74.5185                2.798686
2146  643.5      74.4389                2.80024
2161  648        74.3533                2.798752
2176  652.5      74.2787                2.797619
2191  657        74.1976                2.799177
2206  661.5      74.1279                2.796
2221  666        74.0524                2.795512
2236  670.5      73.968                2.795407
2251  675        73.89144                 2.793486
2266  679.5      73.8079                2.794242
2281  684        73.7357                2.792304
2296  688.5      73.6621                2.792441
2311  693        73.5753                2.792692
2326  697.5      73.4944                2.79056
2341  702        73.415                2.791916
2356  706.5      73.3423                2.791539
2371  711        73.2713                2.792962
2386  715.5      73.1821                2.792206
2401  720        73.1026                2.792181
2416  724.5      73.0324                2.793674
2431  729        72.956                2.793242
2446  733.5      72.8773                2.792734
2461  738        72.7941                2.79373
2476  742.5      72.71                2.793547
2491  747        72.6365                2.795376
2506  751.5      72.5581                  2.795766
2521  756        72.4863                2.795453
2536  760.5      72.4125                2.795956
2551  765        72.3253                2.796126
2566  769.5      72.2496                2.796559
2581  774        72.1682                2.794266
2596  778.5      72.0958                2.795849
2611  783        72.0233                2.795017
2626  787.5      71.9375                2.795641
2641  792        71.8557                2.796727
2656  796.5      71.7739                2.794914
2671  801        71.7005                2.793414
2686  805.5      71.6318                2.793315
2701  810        71.5437                2.793398
2716  814.5      71.4627                2.795281
2731  819        71.392                2.793904
2746  823.5      71.3176                2.794292
2761  828        71.23886                 2.793481
2776  832.5      71.1599                2.794889
2791  837        71.0735                2.791029
2806  841.5      70.9967                2.794552
2821  846        70.9183                2.794301
2836  850.5      70.8471                2.79473
2851  855        70.7734                2.793329
2866  859.5      70.68597                 2.793116
2881  864        70.6105                2.792922
2896  868.5      70.5303                2.79128
2911  873        70.4566                2.792083
2926  877.5      70.3839                2.792614
2941  882        70.3009                2.790504
2956  886.5      70.2174                  2.793177
2971  891        70.1356                2.790651
2986  895.5      70.0621                2.792296
3001  900        69.9924                2.789767
3016  904.5      69.9038                2.78903
3031  909        69.8249                2.791649
3046  913.5      69.7525                2.791081
3061  918        69.67712                 2.790206
3076  922.5      69.6001                2.792269
3091  927        69.5151                2.795369
3106  931.5      69.4311                2.794934
3121  936        69.3595                2.794423
3136  940.5      69.281                2.795217
3151  945        69.2075                2.795379
3166  949.5      69.1341                2.795345
3181  954        69.04824                 2.791781
3196  958.5      68.9725                2.792493
3211  963        68.8891                2.795412
3226  967.5      68.8173                2.795237
3241  972        68.7437                2.793373
3256  976.5      68.6574                2.794123
3271  981        68.5775                2.794612
3286  985.5      68.4964                2.794664
3301  990        68.4232                2.794581
3316  994.5      68.3538                2.793242
3331  999        68.2675                2.794877
3346  1003.5     68.188                2.791365
3361  1008       68.1131                2.789323
3376  1012.5     68.0395                2.790649
3391  1017       67.9631                2.791944
3406  1021.5     67.88291                 2.794632
3421  1026       67.79893                 2.795501
3436  1030.5     67.7221                2.794838
3451  1035       67.6424                2.794316
3466  1039.5     67.5692                2.795539
3481  1044       67.4961                2.792911
3496  1048.5     67.4124                2.795117
3511  1053       67.3363                2.794314
3526  1057.5     67.2556                2.793378
3541  1062       67.1804                2.794084
3556  1066.5     67.10924                 2.791333
3571  1071       67.0238                2.793584
3586  1075.5     66.9416                2.792844
3601  1080       66.8598                2.791996
3616  1084.5     66.7864                2.793933
3631  1089       66.7167                  2.792666
3646  1093.5     66.6293                2.792656
3661  1098       66.5497                2.793381
3676  1102.5     66.4755                2.791601
3691  1107       66.40315                 2.794604
3706  1111.5     66.3244                2.794363
3721  1116       66.2382                2.794999
3736  1120.5     66.1575                2.797288
3751  1125       66.08412                 2.79427
3766  1129.5     66.00661                 2.794381
3781  1134       65.9323                2.796696
3796  1138.5     65.8584                2.796365
3811  1143       65.7723                2.794508
3826  1147.5     65.6995                2.795769
3841  1152       65.6154                2.796212
3856  1156.5     65.5417                2.797321
3871  1161       65.4704                2.797551
3886  1165.5     65.3856                2.796271
3901  1170       65.3066                2.795584
3916  1174.5     65.2221                2.794932
3931  1179       65.14792                 2.793527
3946  1183.5     65.0792                2.791926
3961  1188       64.9921                2.794095
3976  1192.5     64.9119                2.792378
3991  1197       64.8403                2.792391
4006  1201.5     64.7654                2.792134
4021  1206       64.6875                2.792091
4036  1210.5     64.6075                2.791585
4051  1215       64.5232                2.791895
4066  1219.5     64.447                2.792985
4081  1224       64.3691                2.794093
4096  1228.5     64.2959                  2.792252
4111  1233       64.222                2.791196
4126  1237.5     64.1343                2.791491
4141  1242       64.0621                2.792304
4156  1246.5     63.9791                2.788053
4171  1251       63.9051                2.790626
4186  1255.5     63.8317                2.787752
4201  1260       63.749                2.789596
4216  1264.5     63.6672                2.790281
4231  1269       63.5842                2.789174
4246  1273.5     63.5112                2.789589
4261  1278       63.4406                2.788279
4276  1282.5     63.3562                2.789579
4291  1287       63.2757                2.788007
4306  1291.5     63.2035                2.792191
4321  1296       63.1267                2.78917
4336  1300.5     63.0513                2.789198
4351  1305       62.9649                2.790836
4366  1309.5     62.8823                2.791358
4381  1314       62.80698                 2.791784
4396  1318.5     62.7333                2.790428
4411  1323       62.6581                2.790682
4426  1327.5     62.5832                2.791026
4441  1332       62.4954                2.78937
4456  1336.5     62.425                2.787908
4471  1341       62.3424                2.787863
4486  1345.5     62.2674                2.787945
4501  1350       62.1907                2.78837
4516  1354.5     62.1098                2.787671
4531  1359       62.0298                2.787519
4546  1363.5     61.9465                2.786338
4561  1368       61.874                2.785084
4576  1372.5     61.8035                2.78644
4591  1377       61.719                2.784554
4606  1381.5     61.63687                 2.786556
4621  1386       61.5649                2.786493
4636  1390.5     61.4898                2.783187
4651  1395       61.4162                2.784169
4666  1399.5     61.3317                2.786427
4681  1404       61.249                2.786648
4696  1408.5     61.1704                2.78588
4711  1413       61.0966                2.786881
4726  1417.5     61.0217                2.788594
4741  1422       60.9449                2.784901
4756  1426.5     60.8596                2.78556
4771  1431       60.7882                2.7863
4786  1435.5     60.7066                2.785985
4801  1440       60.631                2.78495
4816  1444.5     60.5531                2.786153
4831  1449       60.4699                2.785966
4846  1453.5     60.3948                2.784195
4861  1458       60.3121                2.786443
4876  1462.5     60.23926                 2.784485
4891  1467       60.16607                 2.785761
4906  1471.5     60.0825                2.785088
4921  1476       60.0007                2.78465
4936  1480.5     59.9269                2.785878
4951  1485       59.8543                2.783709
4966  1489.5     59.7789                2.787579
4981  1494       59.6892                2.787793
4996  1498.5     59.6099                2.788293
5011  1503       59.5331                2.785287
5026  1507.5     59.4587                2.785899
5041  1512       59.3844                2.785908
5056  1516.5     59.3074                2.786784
5071  1521       59.221                2.784675
5086  1525.5     59.1502                2.785306
5101  1530       59.0697                2.784418
5116  1534.5     58.9966                2.785143
5131  1539       58.92309                 2.782407
5146  1543.5     58.8364                2.784291
5161  1548       58.75964                 2.783478
5176  1552.5     58.672                2.783141
5191  1557       58.601                2.781961
5206  1561.5     58.5288                2.781416
5221  1566       58.4456                2.780944
5236  1570.5     58.3654                2.780228
5251  1575       58.29099                 2.778444
5266  1579.5     58.2172                2.779843
5281  1584       58.1439                2.78221
5296  1588.5     58.0595                2.782615
5311  1593       57.9767                2.780794
5326  1597.5     57.8968                2.7827
5341  1602       57.8223                2.780938
5356  1606.5     57.7487                2.782119
5371  1611       57.6713                2.779863
5386  1615.5     57.5857                2.778614
5401  1620       57.5157                2.779783
5416  1624.5     57.4349                2.778055
5431  1629       57.3599                2.778791
5446  1633.5     57.2809                2.777143
5461  1638       57.19446                 2.779276
5476  1642.5     57.12052                 2.777182
5491  1647       57.0361                2.778541
5506  1651.5     56.9662                2.777164
5521  1656       56.89                2.776161
5536  1660.5     56.8092                2.777711
5551  1665       56.7297                2.778141
5566  1669.5     56.6532                2.780372
5581  1674       56.5779                2.779606
5596  1678.5     56.5049                2.780622
5611  1683       56.4186                2.782574
5626  1687.5     56.338                2.781241
5641  1692       56.2589                2.781279
5656  1696.5     56.1879                2.782235
5671  1701       56.1129                2.782133
5686  1705.5     56.0352                2.783054
5701  1710       55.9497                2.782178
5716  1714.5     55.8775                2.784294
5731  1719       55.7995                2.784714
5746  1723.5     55.7244                2.784169
5761  1728       55.6433                2.781766
5776  1732.5     55.5559                2.783488
5791  1737       55.4859                2.783919
5806  1741.5     55.4021                2.782561
5821  1746       55.3293                2.782192
5836  1750.5     55.2519                2.783716
5851  1755       55.17                2.782502
5866  1759.5     55.0928                2.780254
5881  1764       55.0165                2.781237
5896  1768.5     54.9403                2.780676
5911  1773       54.87135                 2.781724
5926  1777.5     54.78681                 2.782671
5941  1782       54.7035                2.783166
5956  1786.5     54.623                2.782628
5971  1791       54.5499                2.78321
5986  1795.5     54.4792                2.784569
6001  1800       54.3976                2.78383
6016  1804.5     54.314                2.782219
6031  1809       54.2425                2.778859
6046  1813.5     54.1628                2.781929
6061  1818       54.08698                 2.781485
6076  1822.5     54.0097                2.78302
6091  1827       53.9235                2.781994
6106  1831.5     53.8498                2.782432
6121  1836       53.7667                2.781837
6136  1840.5     53.6947                2.78165
6151  1845       53.6165                2.782709
6166  1849.5     53.5326                2.782015
6181  1854       53.4589                2.783584
6196  1858.5     53.3812                2.781788
6211  1863       53.30595                 2.783252
6226  1867.5     53.2323                2.784541
6241  1872       53.14521                 2.783742
6256  1876.5     53.0652                2.785244
6271  1881       52.98493                 2.786124
6286  1885.5     52.9114                2.786491
6301  1890       52.8428                2.785313
6316  1894.5     52.7589                2.787921
6331  1899       52.6777                2.785493
6346  1903.5     52.6031                2.788023
6361  1908       52.52735                 2.786425
6376  1912.5     52.4512                2.787771
6391  1917       52.3741                2.787948
6406  1921.5     52.28767                 2.786733
6421  1926       52.2136                2.785454
6436  1930.5     52.1325                2.785986
6451  1935       52.0592                2.785042
6466  1939.5     51.9795                2.785555
6481  1944       51.8948                2.784598
6496  1948.5     51.824                2.783502
6511  1953       51.7433                  2.783193
6526  1957.5     51.67                2.782431
6541  1962       51.6006                2.782923
6556  1966.5     51.5146                2.784092
6571  1971       51.4331                2.784481
6586  1975.5     51.3491                2.784065
6601  1980       51.2754                2.784672
6616  1984.5     51.20959                 2.782097
6631  1989       51.1248                2.783252
6646  1993.5     51.0445                2.782777
6661  1998       50.9698                2.780742
6676  2002.5     50.8943                2.780976
6691  2007       50.8178                2.77997
6706  2011.5     50.7377                  2.781536
6721  2016       50.6537                2.77962
6736  2020.5     50.5769                2.780625
6751  2025       50.4992                2.780014
6766  2029.5     50.4232                2.781889
6781  2034       50.3416                2.780395
6796  2038.5     50.25794                 2.7788
6811  2043       50.1926                2.781779
6826  2047.5     50.1099                2.781487
6841  2052       50.0358                2.783102
6856  2056.5     49.9575                2.781814
6871  2061       49.8721                2.782952
6886  2065.5     49.79688                 2.784941
6901  2070       49.7144                2.784704
6916  2074.5     49.6426                2.785884
6931  2079       49.5756                2.78633
6946  2083.5     49.4922                2.786425
6961  2088       49.408                2.784837
6976  2092.5     49.3319                2.784243
6991  2097       49.25614                 2.784915
7006  2101.5     49.18455                 2.786384
7021  2106       49.096                2.787189
7036  2110.5     49.0159                2.788246
7051  2115       48.9393                2.785632
7066  2119.5     48.8628                2.784103
7081  2124       48.7881                2.783717
7096  2128.5     48.70741                 2.783535
7111  2133       48.62529                 2.783049
7126  2137.5     48.5558                2.782753
7141  2142       48.4736                2.782622
7156  2146.5     48.40138                 2.784509
7171  2151       48.327                2.782641
7186  2155.5     48.2433                2.784066
7201  2160       48.1665                2.784433
7216  2164.5     48.0792                2.785585
7231  2169       48.0072                2.786096
7246  2173.5     47.93971                 2.786123
7261  2178       47.8581                2.786157
7276  2182.5     47.7751                2.787039
7291  2187       47.6977                2.786107
7306  2191.5     47.6215                2.785511
7321  2196       47.5504                2.785836
7336  2200.5     47.4622                2.787659
7351  2205       47.3819                2.790075
7366  2209.5     47.3036                2.787126
7381  2214       47.2296                2.788961
7396  2218.5     47.1563                2.787652
7411  2223       47.0719                2.788711
7426  2227.5     46.9916                2.786255
7441  2232       46.9234                2.787739
7456  2236.5     46.8423                2.788365
7471  2241       46.76582                 2.788948
7486  2245.5     46.68436                 2.791979
7501  2250       46.5996                2.794844
7516  2254.5     46.528                2.793378
7531  2259       46.4452                2.792472
7546  2263.5     46.3719                2.795418
7561  2268       46.301                2.795567
7576  2272.5     46.2186                2.794455
7591  2277       46.1392                2.793385
7606  2281.5     46.0616                2.795844
7621  2286       45.9844                2.797382
7636  2290.5     45.9161                2.795578
7651  2295       45.83086                 2.794638
7666  2299.5     45.7499                2.796339
7681  2304       45.6677                2.794321
7696  2308.5     45.5928                2.79467
7711  2313       45.5221                2.794597
7726  2317.5     45.4356                2.79542
7741  2322       45.3552                2.794171
7756  2326.5     45.283                2.794941
7771  2331       45.2082                2.794397
7786  2335.5     45.1319                2.795548
7801  2340       45.0531                2.797388
7816  2344.5     44.9668                2.794295
7831  2349       44.8944                2.796785
7846  2353.5     44.812                2.796313
7861  2358       44.7375                2.7957
7876  2362.5     44.6662                2.796689
7891  2367       44.5838                2.796258
7906  2371.5     44.5067                2.793696
7921  2376       44.4253                2.794039
7936  2380.5     44.35036                 2.794165
7951  2385       44.27942                 2.794722
7966  2389.5     44.1958                2.794656
7981  2394       44.114                2.795662
7996  2398.5     44.029                2.794123
8011  2403       43.9571                2.796627
8026  2407.5     43.8868                  2.795836
8041  2412       43.8005                2.795148
8056  2416.5     43.7199                2.792918
8071  2421       43.64701                 2.793887
8086  2425.5     43.5723                2.792938
8101  2430       43.4966                2.795439
8116  2434.5     43.4128                2.797868
8131  2439       43.3285                2.798957
8146  2443.5     43.2552                2.797344
8161  2448       43.1775                2.798653
8176  2452.5     43.1029                2.798139
8191  2457       43.0267                2.798559
8206  2461.5     42.9433                2.797947
8221  2466       42.8709                2.798067
8236  2470.5     42.7875                2.797675
8251  2475       42.7157                2.798194
8266  2479.5     42.6367                2.799111
8281  2484       42.5521                2.798442
8296  2488.5     42.4771                2.798721
8311  2493       42.3932                2.796768
8326  2497.5     42.32011                 2.798292
8341  2502       42.2502                2.798889
8356  2506.5     42.1642                2.799405
8371  2511       42.08417                 2.798483
8386  2515.5     42.0113                2.798403
8401  2520       41.9361                2.798635
8416  2524.5     41.8636                2.798822
8431  2529       41.7803                2.79637
8446  2533.5     41.698                2.797958
8461  2538       41.6168                2.800872
8476  2542.5     41.5415                2.801705
8491  2547       41.4692                2.801048
8506  2551.5     41.39056                 2.800617
8521  2556       41.3065                  2.799506
8536  2560.5     41.2376                2.799566
8551  2565       41.1551                2.798963
8566  2569.5     41.0815                2.799271
8581  2574       41.005                2.800392
8596  2578.5     40.9187                2.799543
8611  2583       40.8438                2.800009
8626  2587.5     40.7586                2.799878
8641  2592       40.6865                2.800145
8656  2596.5     40.6108                2.801128
8671  2601       40.5291                2.799844
8686  2605.5     40.4512                2.798904
8701  2610       40.373                2.801614
8716  2614.5     40.2984                2.802263
8731  2619       40.225                2.803172
8746  2623.5     40.1403                2.803309
8761  2628       40.06                2.802284
8776  2632.5     39.9776                2.802743
8791  2637       39.9051                2.804245
8806  2641.5     39.8348                2.804765
8821  2646       39.755                2.80281
8836  2650.5     39.6721                2.802764
8851  2655       39.599                2.803798
8866  2659.5     39.5207                2.804099
8881  2664       39.4434                2.803951
8896  2668.5     39.3649                2.803319
8911  2673       39.2817                2.802889
8926  2677.5     39.2068                2.801457
8941  2682       39.1254                2.801942
8956  2686.5     39.0506                2.801634
8971  2691       38.9713                2.800321
8986  2695.5     38.889                2.800053
9001  2700       38.8187                2.799315
9016  2704.5     38.7364                2.799064
9031  2709       38.6635                2.798842
9046  2713.5     38.5916                2.799146
9061  2718       38.5082                2.80033
9076  2722.5     38.4259                2.801414
9091  2727       38.3437                2.80128
9106  2731.5     38.2693                2.801515
9121  2736       38.2006                2.799358
9136  2740.5     38.1174                2.799244
9151  2745       38.0371                2.799216
9166  2749.5     37.9622                2.797893
9181  2754       37.88753                 2.797427
9196  2758.5     37.8118                2.797641
9211  2763       37.7278                2.797902
9226  2767.5     37.6449                2.798203
9241  2772       37.5671                2.797062
9256  2776.5     37.4911                2.796889
9271  2781       37.4174                2.797771
9286  2785.5     37.3355                2.796622
9301  2790       37.253                2.79677
9316  2794.5     37.1832                2.79798
9331  2799       37.10328                 2.798461
9346  2803.5     37.0296                2.798575
9361  2808       36.9486                2.798958
9376  2812.5     36.8656                2.798834
9391  2817       36.7922                2.799736
9406  2821.5     36.7038                2.801381
9421  2826       36.6346                2.801635
9436  2830.5     36.5634                2.80093
9451  2835       36.4825                2.799744
9466  2839.5     36.4007                2.801298
9481  2844       36.3248                2.800955
9496  2848.5     36.2473                2.799585
9511  2853       36.1747                2.800115
9526  2857.5     36.0896                2.800725
9541  2862       36.0095                2.801766
9556  2866.5     35.9299                2.799153
9571  2871       35.855                2.798943
9586  2875.5     35.783                2.79859
9601  2880       35.6978                2.799084
9616  2884.5     35.6185                2.798203
9631  2889       35.5485                2.798759
9646  2893.5     35.4691                2.799021
9661  2898       35.3935                2.798554
9676  2902.5     35.3161                2.797932
9691  2907       35.23096                 2.797687
9706  2911.5     35.15744                 2.799443
9721  2916       35.0727                2.799705
9736  2920.5     35.0007                2.799795
9751  2925       34.9274                2.800788
9766  2929.5     34.84595                 2.79941
9781  2934       34.7692                2.799363
9796  2938.5     34.689                2.800005
9811  2943       34.6127                2.798683
9826  2947.5     34.5402                2.799914
9841  2952       34.4562                2.799605
9856  2956.5     34.3755                2.799004
9871  2961       34.2934                2.800295
9886  2965.5     34.2184                2.799387
9901  2970       34.1487                2.800608
9916  2974.5     34.0628                2.80139
9931  2979       33.9846                2.800472
9946  2983.5     33.9107                2.801994
9961  2988       33.8361                2.801892
9976  2992.5     33.7592                2.802789
9991  2997       33.6748                2.802449
10006 3001.5     33.5925                2.804406
10021 3006       33.5164                2.805623
10036 3010.5     33.44                2.805833
10051 3015       33.3639                2.805992
10066 3019.5     33.2926                2.803128
10081 3024       33.2061                2.805079
10096 3028.5     33.135                2.805139
10111 3033       33.0533                2.805053
10126 3037.5     32.9786                2.804551
10141 3042       32.9052                2.8042
10156 3046.5     32.823                2.803934
10171 3051       32.7444                2.804615
10186 3055.5     32.6581                2.804592
10201 3060       32.5856                2.804056
10216 3064.5     32.5107                2.802824
10231 3069       32.429                2.802311
10246 3073.5     32.348                2.802518
10261 3078       32.2726                2.80378
10276 3082.5     32.1996                2.802996
10291 3087       32.1289                2.803727
10306 3091.5     32.0424                2.803465
10321 3096       31.9622                2.802852
10336 3100.5     31.8825                2.803791
10351 3105       31.80838                 2.802563
10366 3109.5     31.7334                2.802862
10381 3114       31.6548                2.8022
10396 3118.5     31.5728                2.800835
10411 3123       31.5022                2.801573
10426 3127.5     31.4213                2.800375
10441 3132       31.3465                2.802454
10456 3136.5     31.2633                2.800674
10471 3141       31.1786                2.801141
10486 3145.5     31.1082                2.801013
10501 3150       31.0241                2.802339
10516 3154.5     30.9507                2.800578
10531 3159       30.8724                2.799699
10546 3163.5     30.792                2.801537
10561 3168       30.717                2.801132
10576 3172.5     30.6362                2.801546
10591 3177       30.5625                2.800803
10606 3181.5     30.4877                2.800822
10621 3186       30.4048                2.801883
10636 3190.5     30.3245                  2.802785
10651 3195       30.2431                2.804403
10666 3199.5     30.1699                2.80549
10681 3204       30.0995                2.80624
10696 3208.5     30.0178                2.806354
10711 3213       29.9371                2.806864
10726 3217.5     29.8631                2.805983
10741 3222       29.7866                2.807434
10756 3226.5     29.7106                2.807112
10771 3231       29.6256                2.806476
10786 3235.5     29.5438                2.807814
10801 3240       29.46849                 2.806525
10816 3244.5     29.3916                2.807164
10831 3249       29.3182                2.806627
10846 3253.5     29.2362                2.806003
10861 3258       29.1532                2.806861
10876 3262.5     29.085                2.807744
10891 3267       29.0029                2.805676
10906 3271.5     28.9288                2.806619
10921 3276       28.8569                  2.807306
10936 3280.5     28.7729                2.8059
10951 3285       28.6939                2.805685
10966 3289.5     28.6089                2.806332
10981 3294       28.5361                2.807155
10996 3298.5     28.4668                2.808106
11011 3303       28.3862                2.808248
11026 3307.5     28.30352                 2.80782
11041 3312       28.2265                2.808863
11056 3316.5     28.1534                2.809291
11071 3321       28.081                2.809096
11086 3325.5     27.9966                2.810542
11101 3330       27.9148                2.809212
11116 3334.5     27.8353                2.808963
11131 3339       27.7578                2.809222
11146 3343.5     27.6854                2.810921
11161 3348       27.6009                2.811232
11176 3352.5     27.5204                2.811493
11191 3357       27.45138                 2.810501
11206 3361.5     27.3721                2.80918
11221 3366       27.2961                2.810744
11236 3370.5     27.2134                2.811605
11251 3375       27.1281                2.813077
11266 3379.5     27.0573                2.813533
11281 3384       26.9736                2.813497
11296 3388.5     26.9011                2.813853
11311 3393       26.8298                2.815065
11326 3397.5     26.7493                2.813872
11341 3402       26.672                2.813012
11356 3406.5     26.59107                 2.812807
11371 3411       26.5158                2.81223
11386 3415.5     26.4468                2.812733
11401 3420       26.3627                2.813235
11416 3424.5     26.2806                2.812625
11431 3429       26.1983                2.812324
11446 3433.5     26.1219                2.810919
11461 3438       26.051                2.810419
11476 3442.5     25.9671                2.81043
11491 3447       25.8878                2.810507
11506 3451.5     25.8135                2.808934
11521 3456       25.7403                2.81065
11536 3460.5     25.6646                2.810375
11551 3465       25.5828                2.810228
11566 3469.5     25.5                2.810827
11581 3474       25.4217                2.810139
11596 3478.5     25.345                2.810165
11611 3483       25.2707                2.81064
11626 3487.5     25.1941                2.809846
11641 3492       25.1099                2.810083
11656 3496.5     25.0405                2.807387
11671 3501       24.9587                2.806891
11686 3505.5     24.885                2.807087
11701 3510       24.804                2.806437
11716 3514.5     24.72115                 2.807211
11731 3519       24.6468                2.807639
11746 3523.5     24.5607                2.807668
11761 3528       24.4895                2.806163
11776 3532.5     24.4137                2.808784
11791 3537       24.3333                2.807844
11806 3541.5     24.2525                2.806277
11821 3546       24.1758                2.807334
11836 3550.5     24.1012                2.807903
11851 3555       24.0304                2.808965
11866 3559.5     23.9442                2.809022
11881 3564       23.8661                2.808793
11896 3568.5     23.7848                2.809186
11911 3573       23.7102                2.808796
11926 3577.5     23.6378                2.809668
11941 3582       23.5573                2.810074
11956 3586.5     23.4762                2.810801
11971 3591       23.4033                2.811367
11986 3595.5     23.3266                2.811587
12001 3600       23.2489                2.812806
12016 3604.5     23.1686                2.811835
12031 3609       23.0845                2.810947
12046 3613.5     23.0126                2.810649
12061 3618       22.9302                2.812164
12076 3622.5     22.858                2.812086
12091 3627       22.7781                2.809793
12106 3631.5     22.6945                2.811583
12121 3636       22.6239                2.810209
12136 3640.5     22.54181                 2.810364
12151 3645       22.4686                2.810519
12166 3649.5     22.3973                2.809892
12181 3654       22.3139                2.808914
12196 3658.5     22.23458                 2.811001
12211 3663       22.1505                2.810748
12226 3667.5     22.0763                2.811306
12241 3672       22.0083                2.810638
12256 3676.5     21.925                2.811045
12271 3681       21.8439                2.810809
12286 3685.5     21.7711                2.810677
12301 3690       21.6973                2.811643
12316 3694.5     21.6218                2.810818
12331 3699       21.53386                 2.810838
12346 3703.5     21.4552                2.811711
12361 3708       21.3744                2.812122
12376 3712.5     21.2997                2.811299
12391 3717       21.2256                2.812627
12406 3721.5     21.1434                2.813146
12421 3726       21.0609                2.81179
12436 3730.5     20.9922                2.813114
12451 3735       20.9109                2.813117
12466 3739.5     20.8384                2.813644
12481 3744       20.758                2.812987
12496 3748.5     20.6706                2.813201
12511 3753       20.6011                2.814708
12526 3757.5     20.5152                2.814726
12541 3762       20.4443                2.815512
12556 3766.5     20.3706                2.817324
12571 3771       20.2893                2.816716
12586 3775.5     20.2118                2.816837
12601 3780       20.1333                2.816013
12616 3784.5     20.0575                2.817732
12631 3789       19.9895                2.817139
12646 3793.5     19.9053                2.816732
12661 3798       19.8244                2.816402
12676 3802.5     19.7426                2.815677
12691 3807       19.6658                2.815576
12706 3811.5     19.595                2.816566
12721 3816       19.5088                2.816455
12736 3820.5     19.4296                2.815623
12751 3825       19.3556                2.816174
12766 3829.5     19.2824                2.817134
12781 3834       19.2059                2.816792
12796 3838.5     19.1279                2.816052
12811 3843       19.0447                2.816611
12826 3847.5     18.9706                2.817582
12841 3852       18.8899                2.816365
12856 3856.5     18.815                2.815245
12871 3861       18.7369                2.815058
12886 3865.5     18.6552                2.815157
12901 3870       18.5841                2.814514
12916 3874.5     18.5037                2.815135
12931 3879       18.4296                2.813105
12946 3883.5     18.3545                2.813199
12961 3888       18.2724                2.813293
12976 3892.5     18.1943                2.81335
12991 3897       18.1079                2.812368
13006 3901.5     18.0363                2.813151
13021 3906       17.9607                2.812713
13036 3910.5     17.8783                2.813225
13051 3915       17.799                2.813346
13066 3919.5     17.726                2.813179
13081 3924       17.6502                2.812994
13096 3928.5     17.5778                2.813333
13111 3933       17.4901                2.813845
13126 3937.5     17.4114                2.814474
13141 3942       17.3331                2.815304
13156 3946.5     17.2586                2.815179
13171 3951       17.1836                2.815921
13186 3955.5     17.1062                2.81501
13201 3960       17.0234                2.815591
13216 3964.5     16.9521                2.814531
13231 3969       16.873                2.8155
13246 3973.5     16.7975                2.815407
13261 3978       16.7152                2.815612
13276 3982.5     16.6329                2.815872
13291 3987       16.56317                 2.816109
13306 3991.5     16.4781                2.817242
13321 3996       16.4046                2.81624
13336 4000.5     16.3249                2.815711
13351 4005       16.2423                2.816609
13366 4009.5     16.1705                2.815493
13381 4014       16.0892                2.815314
13396 4018.5     16.01765                 2.814414
13411 4023       15.94746                 2.815295
13426 4027.5     15.866                2.815689
13441 4032       15.7863                2.815332
13456 4036.5     15.7013                2.816145
13471 4041       15.6265                2.816466
13486 4045.5     15.5592                2.815639
13501 4050       15.475                2.816307
13516 4054.5     15.3954                2.815796
13531 4059       15.3209                2.816378
13546 4063.5     15.2465                2.815154
13561 4068       15.1713                2.81545
13576 4072.5     15.0929                2.81532
13591 4077       15.0102                2.815327
13606 4081.5     14.9334                2.814225
13621 4086       14.8542                2.814668
13636 4090.5     14.7783                2.815552
13651 4095       14.6966                2.815015
13666 4099.5     14.6146                2.815285
13681 4104       14.5479                2.814594
13696 4108.5     14.4644                2.814751
13711 4113       14.392                2.815472
13726 4117.5     14.3122                2.815332
13741 4122       14.2301                2.815513
13756 4126.5     14.1582                2.815392
13771 4131       14.0716                2.815233
13786 4135.5     13.9982                2.81572
13801 4140       13.92718                 2.815451
13816 4144.5     13.8456                2.814649
13831 4149       13.767                2.815065
13846 4153.5     13.6926                2.815213
13861 4158       13.6139                2.81464
13876 4162.5     13.5464                2.81419
13891 4167       13.463                2.815083
13906 4171.5     13.384                2.814368
13921 4176       13.304                2.814742
13936 4180.5     13.22691                 2.813349
13951 4185       13.1545                2.812427
13966 4189.5     13.0676                2.812151
13981 4194       12.9898                2.810948
13996 4198.5     12.9182                2.810723
14011 4203       12.8416                2.81017
14026 4207.5     12.7659                2.80886
14041 4212       12.6893                2.809726
14056 4216.5     12.6072                2.809114
14071 4221       12.5338                2.809145
14086 4225.5     12.4509                2.808541
14101 4230       12.3766                2.807572
14116 4234.5     12.3017                2.806966
14131 4239       12.22097                 2.807216
14146 4243.5     12.1458                2.805964
14161 4248       12.0673                2.806212
14176 4252.5     11.9931                2.80483
14191 4257       11.9204                2.80437
14206 4261.5     11.838                2.803697
14221 4266       11.757                2.803477
14236 4270.5     11.675                2.802822
14251 4275       11.5995                2.801934
14266 4279.5     11.5296                2.801358
14281 4284       11.4463                2.800923
14296 4288.5     11.3679                2.800416
14311 4293       11.2934                2.800856
14326 4297.5     11.21901                 2.800025
14341 4302       11.1435                2.799861
14356 4306.5     11.059                2.799094
14371 4311       10.9795                2.79918
14386 4315.5     10.9029                2.797808
14401 4320       10.8273                2.796579
14416 4324.5     10.7524                2.797241
14431 4329       10.6792                2.796942
14446 4333.5     10.5967                2.795762
14461 4338       10.5281                2.794311
14476 4342.5     10.4464                2.793031
14491 4347       10.3728                2.791901
14506 4351.5     10.2965                2.79133
14521 4356       10.2164                2.790253
14536 4360.5     10.1394                2.789214
14551 4365       10.05623                 2.787282
14566 4369.5     9.980713                 2.786805
14581 4374       9.910587                 2.784136
14596 4378.5     9.828704                 2.783078
14611 4383       9.750689                 2.780723
14626 4387.5     9.674989                 2.780089
14641 4392       9.600687                 2.778639
14656 4396.5     9.529384                 2.776259
14671 4401       9.449796                 2.775047
14686 4405.5     9.371936                 2.77352
14701 4410       9.291793                 2.771649
14716 4414.5     9.217795                 2.770791
14731 4419       9.144057                 2.769081
14746 4423.5     9.070118                 2.767947
14761 4428       8.988422                 2.765222
14776 4432.5     8.919486                 2.763492
14791 4437       8.838003                 2.761468
14806 4441.5     8.765957                 2.758618
14821 4446       8.690319                 2.756344
14836 4450.5     8.611409                 2.754591
14851 4455       8.535344                 2.750495
14866 4459.5     8.454087                 2.747686
14881 4464       8.381254                 2.744515
14896 4468.5     8.313123                 2.74175
14911 4473       8.230118                 2.737103
14926 4477.5     8.153461                 2.733883
14941 4482       8.081952                 2.729233
14956 4486.5     8.009168                 2.724892
14971 4491       7.935679                 2.719377
14986 4495.5     7.854098                 2.714276
15001 4500       7.776317                 2.709003