File: rawdata/SM_EC-EC_c3.txt
 SM_EC_EC
Creation Date : 12/21/2018 12:44:23 PM
User : PSCM

HeatFlow :
 Initial Mass : 0 mg
 Molar Mass : N/A

Index Time (s)   Furnace Temperature (Â°C) HeatFlow (mW)
1     0          82.9997                -0.211188
16    4.5        82.70588                 -0.197707
31    9          83.2267                -0.188493
46    13.5       83.88491                 -0.184304
61    18         84.3054                -0.186053
76    22.5       84.4968                -0.186422
91    27         84.495                -0.18213
106   31.5       84.4323                -0.173498
121   36         84.4501                -0.156063
136   40.5       84.4614                -0.134699
151   45         84.4205                -0.107067
166   49.5       84.3861                -0.072193
181   54         84.3377                -0.03155
196   58.5       84.3106                0.013302
211   63         84.26563                 0.063023
226   67.5       84.2071                0.119047
241   72         84.1446                0.17766
256   76.5       84.0827                0.239585
271   81         84.0275                0.304951
286   85.5       83.9702                0.372964
301   90         83.896                0.44219
316   94.5       83.8319                0.509952
331   99         83.7628                0.580485
346   103.5      83.6942                0.652827
361   108        83.6306                0.723535
376   112.5      83.5588                0.793591
391   117        83.4906                0.869046
406   121.5      83.4163                0.938753
421   126        83.34238                 1.009332
436   130.5      83.2719                1.07891
451   135        83.1987                1.147547
466   139.5      83.1257                1.215795
481   144        83.0508                1.281012
496   148.5      82.9762                1.34499
511   153        82.9021                1.408141
526   157.5      82.8272                1.469527
541   162        82.7518                1.529041
556   166.5      82.6909                1.586747
571   171        82.6878                1.643715
586   175.5      82.6481                1.701173
601   180        82.5637                1.752075
616   184.5      82.47319                 1.806411
631   189        82.396                1.85489
646   193.5      82.3277                1.902103
661   198        82.2652                1.9437
676   202.5      82.1862                1.990559
691   207        82.1034                2.033979
706   211.5      82.0284                2.073082
721   216        81.9502                  2.111835
736   220.5      81.8805                2.14708
751   225        81.7926                2.182527
766   229.5      81.71125                 2.217277
781   234        81.6314                2.24817
796   238.5      81.5597                2.276774
811   243        81.4855                2.304575
826   247.5      81.3955                2.333728
841   252        81.3135                2.360233
856   256.5      81.2412                2.383079
871   261        81.1635                2.408103
886   265.5      81.0832                2.430896
901   270        81.0037                2.452822
916   274.5      80.9141                2.471686
931   279        80.8355                2.490017
946   283.5      80.757                2.514753
961   288        80.6824                2.528752
976   292.5      80.6049                2.547562
991   297        80.5132                2.561763
1006  301.5      80.4402                2.576005
1021  306        80.3568                2.589789
1036  310.5      80.2829                2.605616
1051  315        80.2041                2.619331
1066  319.5      80.1166                2.631524
1081  324        80.0387                2.642251
1096  328.5      79.951                2.653718
1111  333        79.8794                2.66432
1126  337.5      79.7998                2.672163
1141  342        79.7139                2.682225
1156  346.5      79.6362                2.691072
1171  351        79.5581                2.698247
1186  355.5      79.4808                2.70793
1201  360        79.4039                2.718713
1216  364.5      79.315                2.723827
1231  369        79.2353                2.729182
1246  373.5      79.15431                 2.739281
1261  378        79.0788                2.743577
1276  382.5      79.0093                2.747674
1291  387        78.9224                2.751358
1306  391.5      78.8391                2.754218
1321  396        78.7633                2.759676
1336  400.5      78.6877                2.761737
1351  405        78.6112                2.768689
1366  409.5      78.52706                 2.771626
1381  414        78.44103                 2.772652
1396  418.5      78.3624                2.774547
1411  423        78.2875                2.776162
1426  427.5      78.2103                2.777482
1441  432        78.1272                2.777681
1456  436.5      78.0423                2.783017
1471  441        77.973                2.784802
1486  445.5      77.893                2.787244
1501  450        77.8171                2.791201
1516  454.5      77.7398                2.794325
1531  459        77.6503                2.792404
1546  463.5      77.5739                2.794468
1561  468        77.4897                2.795476
1576  472.5      77.4181                2.794709
1591  477        77.35                2.798743
1606  481.5      77.2635                2.797645
1621  486        77.1794                2.798024
1636  490.5      77.0995                2.79755
1651  495        77.0259                2.798539
1666  499.5      76.95542                 2.799083
1681  504        76.8659                2.798457
1696  508.5      76.7842                2.800261
1711  513        76.7031                2.801621
1726  517.5      76.6304                2.800327
1741  522        76.5571                2.796448
1756  526.5      76.4712                2.797071
1771  531        76.3895                2.800238
1786  535.5      76.31864                 2.799825
1801  540        76.2429                2.801605
1816  544.5      76.1644                2.803443
1831  549        76.0799                2.805282
1846  553.5      75.9937                2.804218
1861  558        75.9218                2.804604
1876  562.5      75.8413                2.803022
1891  567        75.7702                2.802998
1906  571.5      75.6978                2.804141
1921  576        75.6114                2.803581
1936  580.5      75.53231                 2.801661
1951  585        75.4525                2.801102
1966  589.5      75.3773                2.803068
1981  594        75.3035                2.800849
1996  598.5      75.2161                2.799839
2011  603        75.1369                2.79925
2026  607.5      75.0566                2.79829
2041  612        74.9837                2.798681
2056  616.5      74.91334                 2.800637
2071  621        74.8249                  2.800862
2086  625.5      74.7441                2.800376
2101  630        74.6715                2.798816
2116  634.5      74.5974                2.799858
2131  639        74.5193                2.802595
2146  643.5      74.4391                2.804058
2161  648        74.3533                2.80446
2176  652.5      74.281                2.804158
2191  657        74.1989                2.804986
2206  661.5      74.1268                2.806267
2221  666        74.05253                 2.804765
2236  670.5      73.9671                2.805291
2251  675        73.8893                2.803982
2266  679.5      73.8103                2.802275
2281  684        73.73607                 2.800797
2296  688.5      73.66223                 2.803692
2311  693        73.5744                2.802684
2326  697.5      73.4943                2.803183
2341  702        73.4138                2.804227
2356  706.5      73.3402                2.805102
2371  711        73.2718                2.806222
2386  715.5      73.184                2.801274
2401  720        73.1036                2.80411
2416  724.5      73.0304                2.805981
2431  729        72.9548                2.806926
2446  733.5      72.8779                2.806712
2461  738        72.7923                2.808581
2476  742.5      72.7097                2.807277
2491  747        72.6383                2.810734
2506  751.5      72.5591                2.811261
2521  756        72.4864                2.809136
2536  760.5      72.4117                2.810224
2551  765        72.32474                 2.812865
2566  769.5      72.2504                2.812577
2581  774        72.1667                2.811734
2596  778.5      72.09438                 2.812057
2611  783        72.0251                2.812675
2626  787.5      71.9394                2.812231
2641  792        71.8556                2.810817
2656  796.5      71.7745                2.81291
2671  801        71.70089                 2.81234
2686  805.5      71.632                2.813493
2701  810        71.5443                2.815486
2716  814.5      71.4628                2.81688
2731  819        71.3927                  2.817365
2746  823.5      71.3166                2.818083
2761  828        71.23831                 2.820507
2776  832.5      71.15707                 2.820438
2791  837        71.0732                2.818923
2806  841.5      70.9994                2.817132
2821  846        70.9195                2.814557
2836  850.5      70.8465                2.8096
2851  855        70.7729                2.804892
2866  859.5      70.6877                2.799554
2881  864        70.6111                2.793022
2896  868.5      70.5303                2.788633
2911  873        70.4552                2.785394
2926  877.5      70.3841                2.782278
2941  882        70.299                2.777259
2956  886.5      70.2178                2.773572
2971  891        70.1354                  2.769788
2986  895.5      70.0614                2.765468
3001  900        69.9919                2.762605
3016  904.5      69.9037                2.760857
3031  909        69.8257                2.757383
3046  913.5      69.7533                2.754975
3061  918        69.6774                2.751626
3076  922.5      69.6001                2.749039
3091  927        69.51339                 2.74801
3106  931.5      69.4317                2.746076
3121  936        69.3606                2.746634
3136  940.5      69.2804                2.751339
3151  945        69.2086                2.751662
3166  949.5      69.1332                2.755102
3181  954        69.0464                2.757835
3196  958.5      68.9718                2.759175
3211  963        68.8928                2.764877
3226  967.5      68.8175                2.766682
3241  972        68.7414                2.770195
3256  976.5      68.6574                2.773072
3271  981        68.578                2.776189
3286  985.5      68.49777                 2.775235
3301  990        68.4248                2.777276
3316  994.5      68.3539                2.777565
3331  999        68.2667                2.781992
3346  1003.5     68.1858                2.778706
3361  1008       68.1146                2.780365
3376  1012.5     68.039                2.780853
3391  1017       67.9618                2.784027
3406  1021.5     67.8829                2.784453
3421  1026       67.797                2.78722
3436  1030.5     67.7206                2.786095
3451  1035       67.6423                  2.787154
3466  1039.5     67.5685                2.786228
3481  1044       67.4965                2.788448
3496  1048.5     67.4123                2.788712
3511  1053       67.3362                2.787466
3526  1057.5     67.2536                2.785886
3541  1062       67.1792                2.789
3556  1066.5     67.1092                2.78846
3571  1071       67.0253                2.788068
3586  1075.5     66.94307                 2.789336
3601  1080       66.8589                2.788871
3616  1084.5     66.7849                2.789286
3631  1089       66.7153                2.790204
3646  1093.5     66.6291                2.789682
3661  1098       66.5498                2.790801
3676  1102.5     66.4761                2.788805
3691  1107       66.40331                 2.791248
3706  1111.5     66.3252                2.794306
3721  1116       66.239                2.795214
3736  1120.5     66.1557                2.794443
3751  1125       66.0834                2.79204
3766  1129.5     66.0063                2.796511
3781  1134       65.9328                2.795218
3796  1138.5     65.8582                2.795233
3811  1143       65.7716                2.795349
3826  1147.5     65.6973                2.793928
3841  1152       65.615                2.793045
3856  1156.5     65.5422                2.794236
3871  1161       65.4707                2.794819
3886  1165.5     65.38385                 2.795408
3901  1170       65.3048                2.793587
3916  1174.5     65.2232                2.793532
3931  1179       65.1481                2.794958
3946  1183.5     65.0777                2.793086
3961  1188       64.9933                2.791653
3976  1192.5     64.9117                2.79271
3991  1197       64.8382                2.79188
4006  1201.5     64.7653                2.791879
4021  1206       64.6877                2.794417
4036  1210.5     64.6072                2.792144
4051  1215       64.523                2.79172
4066  1219.5     64.44637                 2.792642
4081  1224       64.3695                2.792007
4096  1228.5     64.2953                2.79008
4111  1233       64.221                2.789997
4126  1237.5     64.1334                2.789312
4141  1242       64.062                2.789701
4156  1246.5     63.9776                2.790213
4171  1251       63.9066                2.786736
4186  1255.5     63.83241                 2.788529
4201  1260       63.748                2.787502
4216  1264.5     63.6681                2.787864
4231  1269       63.5833                2.787041
4246  1273.5     63.5115                2.786659
4261  1278       63.441                2.7885
4276  1282.5     63.3554                2.787604
4291  1287       63.2733                2.787434
4306  1291.5     63.2013                2.787837
4321  1296       63.1284                2.789741
4336  1300.5     63.0529                2.788865
4351  1305       62.9644                2.786559
4366  1309.5     62.8816                2.788745
4381  1314       62.8071                2.789234
4396  1318.5     62.733                2.790275
4411  1323       62.6578                2.791103
4426  1327.5     62.5829                2.788163
4441  1332       62.49511                 2.785767
4456  1336.5     62.4239                2.78727
4471  1341       62.3422                2.789807
4486  1345.5     62.27                2.788106
4501  1350       62.1899                2.787494
4516  1354.5     62.1081                2.788974
4531  1359       62.0307                2.786093
4546  1363.5     61.9476                2.787209
4561  1368       61.8757                2.786772
4576  1372.5     61.804                2.7838
4591  1377       61.7189                2.782964
4606  1381.5     61.6376                2.781383
4621  1386       61.567                2.784002
4636  1390.5     61.4907                2.784491
4651  1395       61.41407                 2.785841
4666  1399.5     61.332                2.784139
4681  1404       61.2484                2.78717
4696  1408.5     61.1689                2.785816
4711  1413       61.0955                2.785598
4726  1417.5     61.022                2.788462
4741  1422       60.9447                2.786109
4756  1426.5     60.8596                2.785145
4771  1431       60.7891                2.784758
4786  1435.5     60.7054                2.781857
4801  1440       60.6319                2.786344
4816  1444.5     60.5543                2.788336
4831  1449       60.46878                 2.787264
4846  1453.5     60.3943                2.786137
4861  1458       60.3115                2.785024
4876  1462.5     60.2392                2.784117
4891  1467       60.1653                2.784543
4906  1471.5     60.0818                2.783856
4921  1476       60.0003                2.785151
4936  1480.5     59.9292                2.784786
4951  1485       59.8529                2.785214
4966  1489.5     59.7787                2.786708
4981  1494       59.6906                2.787514
4996  1498.5     59.6093                2.788101
5011  1503       59.53256                 2.786236
5026  1507.5     59.4606                2.787872
5041  1512       59.38422                 2.788901
5056  1516.5     59.3065                2.785663
5071  1521       59.2228                2.786561
5086  1525.5     59.15175                 2.785185
5101  1530       59.0702                2.784208
5116  1534.5     58.9963                2.784676
5131  1539       58.9214                2.783635
5146  1543.5     58.8366                2.783668
5161  1548       58.7592                2.782892
5176  1552.5     58.673                2.780533
5191  1557       58.6032                2.781633
5206  1561.5     58.5286                2.781833
5221  1566       58.4449                2.780244
5236  1570.5     58.3658                2.779677
5251  1575       58.2906                2.778346
5266  1579.5     58.21405                 2.777974
5281  1584       58.1439                2.779035
5296  1588.5     58.0587                2.779234
5311  1593       57.9788                2.779693
5326  1597.5     57.8965                2.780259
5341  1602       57.8232                2.780174
5356  1606.5     57.7479                2.779757
5371  1611       57.6714                2.779101
5386  1615.5     57.5873                2.778407
5401  1620       57.5158                2.776689
5416  1624.5     57.4348                2.775293
5431  1629       57.3589                2.778497
5446  1633.5     57.2794                2.777128
5461  1638       57.1945                2.777238
5476  1642.5     57.1211                2.775189
5491  1647       57.0363                2.777113
5506  1651.5     56.9651                2.776263
5521  1656       56.8904                2.775493
5536  1660.5     56.80787                 2.776191
5551  1665       56.7291                2.776188
5566  1669.5     56.6532                2.777295
5581  1674       56.5782                2.775438
5596  1678.5     56.5052                2.778334
5611  1683       56.4181                2.776997
5626  1687.5     56.3375                2.779714
5641  1692       56.2594                2.780574
5656  1696.5     56.1865                2.779359
5671  1701       56.1122                2.782003
5686  1705.5     56.03375                 2.782214
5701  1710       55.9496                2.780719
5716  1714.5     55.87893                 2.780904
5731  1719       55.7983                2.781799
5746  1723.5     55.7239                2.781342
5761  1728       55.6407                2.782297
5776  1732.5     55.5544                2.784267
5791  1737       55.4852                2.780901
5806  1741.5     55.4028                2.782865
5821  1746       55.3306                2.781634
5836  1750.5     55.2537                2.780554
5851  1755       55.1719                2.781394
5866  1759.5     55.0928                2.778324
5881  1764       55.0165                2.780209
5896  1768.5     54.9404                2.780326
5911  1773       54.8706                2.782366
5926  1777.5     54.78723                 2.782059
5941  1782       54.7038                2.782754
5956  1786.5     54.6219                2.78224
5971  1791       54.5488                2.78334
5986  1795.5     54.479                2.782319
6001  1800       54.3995                2.782756
6016  1804.5     54.3144                2.781589
6031  1809       54.2426                2.781395
6046  1813.5     54.16362                 2.783202
6061  1818       54.0885                2.782376
6076  1822.5     54.0105                2.783286
6091  1827       53.92275                 2.784599
6106  1831.5     53.8486                2.782875
6121  1836       53.7676                2.782776
6136  1840.5     53.6933                2.782568
6151  1845       53.6153                2.783123
6166  1849.5     53.5354                2.783433
6181  1854       53.4602                2.783459
6196  1858.5     53.3822                2.782506
6211  1863       53.3054                  2.782887
6226  1867.5     53.2301                2.784894
6241  1872       53.1461                2.786629
6256  1876.5     53.0648                2.784582
6271  1881       52.98511                 2.786698
6286  1885.5     52.9121                2.786578
6301  1890       52.8433                2.788567
6316  1894.5     52.7606                2.789093
6331  1899       52.6776                2.78605
6346  1903.5     52.6049                2.787239
6361  1908       52.5276                2.787259
6376  1912.5     52.4511                2.788794
6391  1917       52.373                2.789952
6406  1921.5     52.2885                2.788223
6421  1926       52.2135                2.786625
6436  1930.5     52.1319                2.787583
6451  1935       52.0588                2.785473
6466  1939.5     51.9797                2.786511
6481  1944       51.8949                2.786466
6496  1948.5     51.8256                2.785935
6511  1953       51.7443                  2.786688
6526  1957.5     51.6703                2.785623
6541  1962       51.59877                 2.787734
6556  1966.5     51.5152                2.786215
6571  1971       51.4322                2.784935
6586  1975.5     51.3497                2.787746
6601  1980       51.2757                2.787235
6616  1984.5     51.2094                2.786664
6631  1989       51.1262                2.785136
6646  1993.5     51.04412                 2.783966
6661  1998       50.9695                2.785098
6676  2002.5     50.8945                2.785298
6691  2007       50.8183                2.783492
6706  2011.5     50.7355                2.784618
6721  2016       50.6522                2.784328
6736  2020.5     50.5765                2.784579
6751  2025       50.5006                2.784061
6766  2029.5     50.42526                 2.785035
6781  2034       50.3433                2.784155
6796  2038.5     50.2589                2.786219
6811  2043       50.1909                2.786527
6826  2047.5     50.10892                 2.786669
6841  2052       50.0375                2.784732
6856  2056.5     49.9574                2.787602
6871  2061       49.8728                2.788664
6886  2065.5     49.7981                2.788357
6901  2070       49.7136                2.789727
6916  2074.5     49.6416                2.789191
6931  2079       49.5749                2.791177
6946  2083.5     49.4918                2.789853
6961  2088       49.4102                2.791113
6976  2092.5     49.3338                2.789609
6991  2097       49.2594                2.788632
7006  2101.5     49.18414                 2.788776
7021  2106       49.0974                2.788849
7036  2110.5     49.0166                  2.788515
7051  2115       48.9371                2.788796
7066  2119.5     48.86415                 2.787138
7081  2124       48.7895                2.786922
7096  2128.5     48.7083                2.787687
7111  2133       48.62509                 2.785419
7126  2137.5     48.55698                 2.787468
7141  2142       48.4744                2.785697
7156  2146.5     48.4026                2.785633
7171  2151       48.3266                2.786767
7186  2155.5     48.2441                2.788061
7201  2160       48.1673                2.789534
7216  2164.5     48.081                2.790031
7231  2169       48.008                2.791264
7246  2173.5     47.9385                2.790491
7261  2178       47.8558                2.790679
7276  2182.5     47.774                2.789752
7291  2187       47.6989                2.788718
7306  2191.5     47.62211                 2.789622
7321  2196       47.5504                2.789781
7336  2200.5     47.4635                2.792991
7351  2205       47.3814                2.789983
7366  2209.5     47.3025                2.789278
7381  2214       47.2299                2.790154
7396  2218.5     47.1558                2.793248
7411  2223       47.0724                2.794648
7426  2227.5     46.9893                2.791712
7441  2232       46.9217                2.791648
7456  2236.5     46.8416                2.791949
7471  2241       46.7679                2.794918
7486  2245.5     46.6843                2.795053
7501  2250       46.5994                2.794456
7516  2254.5     46.5268                2.795211
7531  2259       46.4424                2.796444
7546  2263.5     46.3728                2.795909
7561  2268       46.3023                2.796785
7576  2272.5     46.2187                2.797913
7591  2277       46.1396                2.798361
7606  2281.5     46.0613                2.79723
7621  2286       45.9849                2.797941
7636  2290.5     45.9137                2.79786
7651  2295       45.8304                2.798145
7666  2299.5     45.7496                2.797624
7681  2304       45.6695                2.799205
7696  2308.5     45.5925                2.799897
7711  2313       45.5228                2.799124
7726  2317.5     45.4341                2.796176
7741  2322       45.3549                2.797361
7756  2326.5     45.2835                2.795384
7771  2331       45.2076                2.795915
7786  2335.5     45.131                2.7971
7801  2340       45.0542                2.796798
7816  2344.5     44.9667                2.79842
7831  2349       44.8955                2.7989
7846  2353.5     44.8113                2.799023
7861  2358       44.7372                2.798183
7876  2362.5     44.6647                2.798174
7891  2367       44.5821                2.795949
7906  2371.5     44.5055                2.796473
7921  2376       44.4251                2.797117
7936  2380.5     44.3507                2.795848
7951  2385       44.2811                2.796585
7966  2389.5     44.1967                2.797581
7981  2394       44.11452                 2.796991
7996  2398.5     44.0293                2.797883
8011  2403       43.9553                2.795647
8026  2407.5     43.8864                2.795957
8041  2412       43.801                2.797868
8056  2416.5     43.72089                 2.795918
8071  2421       43.6467                2.795404
8086  2425.5     43.5731                2.79794
8101  2430       43.4968                2.796126
8116  2434.5     43.4119                2.797413
8131  2439       43.3295                2.798771
8146  2443.5     43.2529                2.799033
8161  2448       43.1779                2.799959
8176  2452.5     43.1024                2.799231
8191  2457       43.0276                2.79965
8206  2461.5     42.9434                2.800319
8221  2466       42.8733                2.799928
8236  2470.5     42.789                2.798762
8251  2475       42.714                2.800464
8266  2479.5     42.636                2.801431
8281  2484       42.5534                2.79986
8296  2488.5     42.4774                2.800182
8311  2493       42.3928                2.801116
8326  2497.5     42.3207                2.801305
8341  2502       42.2488                2.800093
8356  2506.5     42.1669                2.80097
8371  2511       42.0822                2.79979
8386  2515.5     42.0095                2.800266
8401  2520       41.9337                2.800739
8416  2524.5     41.8626                2.801272
8431  2529       41.7795                2.80023
8446  2533.5     41.6977                2.801281
8461  2538       41.6162                2.803596
8476  2542.5     41.5419                2.802811
8491  2547       41.4672                2.804672
8506  2551.5     41.3923                2.803747
8521  2556       41.3073                2.801751
8536  2560.5     41.237                2.802555
8551  2565       41.15536                 2.802903
8566  2569.5     41.08129                 2.801958
8581  2574       41.0055                2.803006
8596  2578.5     40.9198                2.802263
8611  2583       40.845                2.801398
8626  2587.5     40.7584                2.803417
8641  2592       40.6869                2.801898
8656  2596.5     40.6084                2.804703
8671  2601       40.5293                2.802591
8686  2605.5     40.4508                2.803328
8701  2610       40.3753                2.802406
8716  2614.5     40.2992                2.804839
8731  2619       40.2254                2.804657
8746  2623.5     40.13979                 2.803447
8761  2628       40.0586                2.801912
8776  2632.5     39.9772                2.80276
8791  2637       39.90619                 2.805736
8806  2641.5     39.8345                2.803868
8821  2646       39.7536                2.803889
8836  2650.5     39.6706                2.804311
8851  2655       39.59862                 2.80499
8866  2659.5     39.5205                2.806455
8881  2664       39.444                2.804414
8896  2668.5     39.3649                2.806163
8911  2673       39.282                2.804886
8926  2677.5     39.2083                2.804857
8941  2682       39.1255                2.804279
8956  2686.5     39.0525                2.805363
8971  2691       38.9736                2.804573
8986  2695.5     38.8895                2.802763
9001  2700       38.8172                2.801129
9016  2704.5     38.73539                 2.802584
9031  2709       38.662                2.801013
9046  2713.5     38.5942                2.801691
9061  2718       38.5094                2.802431
9076  2722.5     38.4263                2.802835
9091  2727       38.3415                2.803211
9106  2731.5     38.2679                2.803179
9121  2736       38.2006                2.800611
9136  2740.5     38.118                2.801066
9151  2745       38.037                2.799813
9166  2749.5     37.9623                2.798296
9181  2754       37.8867                2.79941
9196  2758.5     37.8121                2.798133
9211  2763       37.7278                2.800232
9226  2767.5     37.6444                2.800162
9241  2772       37.5667                2.797918
9256  2776.5     37.4919                2.797488
9271  2781       37.4176                2.800416
9286  2785.5     37.33508                 2.79982
9301  2790       37.2514                2.799136
9316  2794.5     37.1825                2.798576
9331  2799       37.1018                2.797912
9346  2803.5     37.0277                2.797923
9361  2808       36.9473                2.79852
9376  2812.5     36.86549                 2.799351
9391  2817       36.7906                2.798658
9406  2821.5     36.7057                2.799518
9421  2826       36.6331                2.800667
9436  2830.5     36.565                2.801114
9451  2835       36.4809                2.800173
9466  2839.5     36.3999                2.800538
9481  2844       36.32328                 2.801402
9496  2848.5     36.2479                2.801324
9511  2853       36.1776                2.800069
9526  2857.5     36.0898                2.799436
9541  2862       36.0097                2.799824
9556  2866.5     35.9292                2.799742
9571  2871       35.8543                2.800541
9586  2875.5     35.7822                2.799016
9601  2880       35.69843                 2.798368
9616  2884.5     35.618                2.798396
9631  2889       35.5482                2.798174
9646  2893.5     35.47                2.798382
9661  2898       35.3937                2.798658
9676  2902.5     35.3168                2.799359
9691  2907       35.232                2.80083
9706  2911.5     35.1587                2.799122
9721  2916       35.0732                2.798844
9736  2920.5     34.9998                2.80167
9751  2925       34.9264                2.801177
9766  2929.5     34.8461                2.801294
9781  2934       34.76794                 2.800598
9796  2938.5     34.6887                2.800457
9811  2943       34.6149                2.80171
9826  2947.5     34.5426                2.800963
9841  2952       34.45592                 2.802038
9856  2956.5     34.3752                2.803693
9871  2961       34.2932                2.802869
9886  2965.5     34.22                2.803531
9901  2970       34.1484                2.803046
9916  2974.5     34.0645                2.803388
9931  2979       33.9842                2.803444
9946  2983.5     33.911                2.803702
9961  2988       33.8359                2.802748
9976  2992.5     33.7605                2.80479
9991  2997       33.6733                2.804366
10006 3001.5     33.59173                 2.806
10021 3006       33.5137                2.804625
10036 3010.5     33.4401                2.805842
10051 3015       33.3652                2.805118
10066 3019.5     33.2918                2.805215
10081 3024       33.2063                2.805573
10096 3028.5     33.1345                2.805583
10111 3033       33.0533                2.804797
10126 3037.5     32.9787                2.803621
10141 3042       32.90718                 2.804666
10156 3046.5     32.8228                2.804897
10171 3051       32.7435                2.805295
10186 3055.5     32.6584                2.804082
10201 3060       32.5851                2.804781
10216 3064.5     32.5118                2.805043
10231 3069       32.4294                2.80524
10246 3073.5     32.3508                2.803384
10261 3078       32.2737                2.802654
10276 3082.5     32.1989                2.803847
10291 3087       32.1278                2.803384
10306 3091.5     32.04136                 2.804226
10321 3096       31.9614                2.804563
10336 3100.5     31.8818                2.805311
10351 3105       31.80718                 2.803789
10366 3109.5     31.7324                2.804649
10381 3114       31.6552                2.803166
10396 3118.5     31.5715                2.80346
10411 3123       31.5004                2.802574
10426 3127.5     31.42154                 2.80286
10441 3132       31.345                2.801544
10456 3136.5     31.2649                2.803536
10471 3141       31.17975                 2.801673
10486 3145.5     31.10763                 2.802225
10501 3150       31.0242                2.802786
10516 3154.5     30.9528                2.803738
10531 3159       30.8727                2.801838
10546 3163.5     30.7913                2.801538
10561 3168       30.7165                2.801809
10576 3172.5     30.6373                2.801963
10591 3177       30.56243                 2.803344
10606 3181.5     30.4896                2.80271
10621 3186       30.4048                2.803729
10636 3190.5     30.3243                2.805935
10651 3195       30.2436                2.806424
10666 3199.5     30.1687                2.805413
10681 3204       30.10032                 2.807432
10696 3208.5     30.0175                2.80621
10711 3213       29.9376                2.807981
10726 3217.5     29.8624                2.806355
10741 3222       29.7868                2.807767
10756 3226.5     29.7104                2.807497
10771 3231       29.6265                2.807327
10786 3235.5     29.5444                2.809063
10801 3240       29.4692                2.808147
10816 3244.5     29.3909                2.80862
10831 3249       29.31719                 2.8072
10846 3253.5     29.2342                2.807866
10861 3258       29.15259                 2.806902
10876 3262.5     29.0847                  2.80732
10891 3267       29.0031                2.807593
10906 3271.5     28.9279                2.806551
10921 3276       28.8549                2.807518
10936 3280.5     28.7737                2.808797
10951 3285       28.695                2.807744
10966 3289.5     28.6097                2.807045
10981 3294       28.5381                2.808957
10996 3298.5     28.4698                2.808795
11011 3303       28.3883                2.809152
11026 3307.5     28.3049                2.808204
11041 3312       28.2257                2.808562
11056 3316.5     28.1501                2.807102
11071 3321       28.0799                  2.808138
11086 3325.5     27.9959                2.807809
11101 3330       27.91409                 2.808545
11116 3334.5     27.8351                2.8087
11131 3339       27.76074                 2.808179
11146 3343.5     27.6857                2.807606
11161 3348       27.6004                2.809141
11176 3352.5     27.5207                2.80961
11191 3357       27.4503                2.809879
11206 3361.5     27.3707                2.810342
11221 3366       27.29618                 2.810621
11236 3370.5     27.2126                2.811405
11251 3375       27.1302                2.812164
11266 3379.5     27.0577                2.813788
11281 3384       26.976                2.81394
11296 3388.5     26.903                2.813884
11311 3393       26.8303                2.814343
11326 3397.5     26.747                2.814033
11341 3402       26.6708                2.813172
11356 3406.5     26.5906                2.812991
11371 3411       26.5161                2.812833
11386 3415.5     26.4448                2.812159
11401 3420       26.36049                 2.812228
11416 3424.5     26.2804                2.811896
11431 3429       26.1972                2.811058
11446 3433.5     26.1241                2.811682
11461 3438       26.0511                2.810831
11476 3442.5     25.9654                2.811965
11491 3447       25.8882                2.809222
11506 3451.5     25.8135                2.807548
11521 3456       25.7391                  2.809777
11536 3460.5     25.663                2.810501
11551 3465       25.5825                2.810637
11566 3469.5     25.5007                2.809524
11581 3474       25.4228                2.81084
11596 3478.5     25.34612                 2.809408
11611 3483       25.2706                2.809423
11626 3487.5     25.1936                2.81045
11641 3492       25.10988                 2.809779
11656 3496.5     25.0398                2.808581
11671 3501       24.9582                2.808851
11686 3505.5     24.883                2.807461
11701 3510       24.805                2.806842
11716 3514.5     24.7225                2.808006
11731 3519       24.6478                2.807328
11746 3523.5     24.5603                2.806278
11761 3528       24.48877                 2.806368
11776 3532.5     24.4145                2.806752
11791 3537       24.3311                2.806118
11806 3541.5     24.25279                 2.807993
11821 3546       24.1773                2.80548
11836 3550.5     24.1011                2.807237
11851 3555       24.0307                2.80748
11866 3559.5     23.9432                2.809034
11881 3564       23.8651                2.808812
11896 3568.5     23.7853                2.810417
11911 3573       23.7091                2.810637
11926 3577.5     23.6384                2.809693
11941 3582       23.5573                2.811388
11956 3586.5     23.4751                2.80974
11971 3591       23.4053                2.809412
11986 3595.5     23.3268                2.810073
12001 3600       23.2504                2.809472
12016 3604.5     23.1675                2.810556
12031 3609       23.0837                2.809743
12046 3613.5     23.0113                2.809909
12061 3618       22.9304                2.809455
12076 3622.5     22.8563                2.808869
12091 3627       22.7761                2.808295
12106 3631.5     22.6929                2.808298
12121 3636       22.6231                2.808137
12136 3640.5     22.54006                 2.809083
12151 3645       22.4695                2.808075
12166 3649.5     22.3985                2.809501
12181 3654       22.3157                2.809867
12196 3658.5     22.2358                2.809409
12211 3663       22.1521                2.80884
12226 3667.5     22.0761                2.81019
12241 3672       22.009                2.810817
12256 3676.5     21.9264                2.810799
12271 3681       21.8437                2.810532
12286 3685.5     21.7705                2.809142
12301 3690       21.6943                2.810365
12316 3694.5     21.6225                2.809915
12331 3699       21.5344                2.810715
12346 3703.5     21.4546                2.810986
12361 3708       21.3756                2.81253
12376 3712.5     21.2995                2.812761
12391 3717       21.22501                 2.812449
12406 3721.5     21.1407                2.812503
12421 3726       21.0598                2.812404
12436 3730.5     20.9915                2.813401
12451 3735       20.9144                2.813461
12466 3739.5     20.839                2.81454
12481 3744       20.7557                2.814628
12496 3748.5     20.6723                2.814866
12511 3753       20.60192                 2.816636
12526 3757.5     20.517                2.816563
12541 3762       20.444                2.817373
12556 3766.5     20.3738                2.817236
12571 3771       20.2895                2.817671
12586 3775.5     20.2134                2.817157
12601 3780       20.1348                2.817644
12616 3784.5     20.05856                 2.818123
12631 3789       19.9901                2.818233
12646 3793.5     19.9058                2.817616
12661 3798       19.8263                2.817997
12676 3802.5     19.7424                2.817757
12691 3807       19.66703                 2.817455
12706 3811.5     19.5962                2.816675
12721 3816       19.5095                2.8167
12736 3820.5     19.4311                2.818139
12751 3825       19.3574                2.817268
12766 3829.5     19.283                2.817823
12781 3834       19.20609                 2.817153
12796 3838.5     19.1278                2.816125
12811 3843       19.0461                2.816936
12826 3847.5     18.9706                2.817419
12841 3852       18.8905                2.817789
12856 3856.5     18.8162                2.81845
12871 3861       18.74118                 2.818105
12886 3865.5     18.6573                2.818435
12901 3870       18.5847                2.817189
12916 3874.5     18.5024                2.816636
12931 3879       18.4292                2.815842
12946 3883.5     18.3557                2.816022
12961 3888       18.2746                2.815546
12976 3892.5     18.1956                2.815387
12991 3897       18.1099                2.814733
13006 3901.5     18.0358                2.814397
13021 3906       17.96149                 2.814106
13036 3910.5     17.879                2.814505
13051 3915       17.8002                2.814456
13066 3919.5     17.7238                2.814173
13081 3924       17.6511                2.812244
13096 3928.5     17.5772                2.813969
13111 3933       17.4917                2.814887
13126 3937.5     17.4129                2.814652
13141 3942       17.3317                2.815859
13156 3946.5     17.2576                2.815408
13171 3951       17.18602                 2.81667
13186 3955.5     17.1068                2.816493
13201 3960       17.0236                2.815965
13216 3964.5     16.9566                2.816332
13231 3969       16.8748                2.816367
13246 3973.5     16.7996                2.816583
13261 3978       16.7162                2.818384
13276 3982.5     16.6328                2.816758
13291 3987       16.5608                2.816821
13306 3991.5     16.477                2.816263
13321 3996       16.4052                2.81579
13336 4000.5     16.3266                2.814964
13351 4005       16.24293                 2.815047
13366 4009.5     16.1718                2.815252
13381 4014       16.0919                2.815388
13396 4018.5     16.0169                2.815107
13411 4023       15.9458                2.814979
13426 4027.5     15.86417                 2.81489
13441 4032       15.7854                2.815445
13456 4036.5     15.7025                2.815097
13471 4041       15.6267                2.814073
13486 4045.5     15.5578                2.815898
13501 4050       15.4751                2.81544
13516 4054.5     15.3956                2.816163
13531 4059       15.3212                2.815346
13546 4063.5     15.246                2.815788
13561 4068       15.1711                2.814375
13576 4072.5     15.0906                2.814806
13591 4077       15.0081                2.816076
13606 4081.5     14.932                2.816997
13621 4086       14.8543                2.816091
13636 4090.5     14.7793                2.816234
13651 4095       14.6967                2.815397
13666 4099.5     14.6155                2.816033
13681 4104       14.5464                2.815845
13696 4108.5     14.4663                2.81584
13711 4113       14.3922                2.815145
13726 4117.5     14.3149                2.815255
13741 4122       14.2321                2.816523
13756 4126.5     14.1572                2.817218
13771 4131       14.0698                2.817264
13786 4135.5     13.9985                2.816592
13801 4140       13.9283                2.816612
13816 4144.5     13.8479                2.816406
13831 4149       13.7667                2.815452
13846 4153.5     13.6913                2.815727
13861 4158       13.6148                2.815428
13876 4162.5     13.5463                2.814713
13891 4167       13.462                2.813072
13906 4171.5     13.3834                2.814501
13921 4176       13.3052                2.813738
13936 4180.5     13.2282                2.813945
13951 4185       13.1542                2.812376
13966 4189.5     13.0692                2.811889
13981 4194       12.9879                2.811886
13996 4198.5     12.9201                2.811021
14011 4203       12.842                2.810418
14026 4207.5     12.7675                2.810143
14041 4212       12.6918                2.811258
14056 4216.5     12.60752                 2.8093
14071 4221       12.5346                2.809421
14086 4225.5     12.4497                2.808763
14101 4230       12.3768                2.808072
14116 4234.5     12.3029                2.808067
14131 4239       12.2227                2.807784
14146 4243.5     12.1481                2.807402
14161 4248       12.0667                2.806065
14176 4252.5     11.9937                2.805357
14191 4257       11.9209                2.803469
14206 4261.5     11.8394                2.804704
14221 4266       11.7573                2.803527
14236 4270.5     11.6761                2.803305
14251 4275       11.6015                2.8029
14266 4279.5     11.5301                2.802508
14281 4284       11.446                2.801239
14296 4288.5     11.3672                2.800497
14311 4293       11.2933                2.799554
14326 4297.5     11.2205                2.79896
14341 4302       11.1445                2.798573
14356 4306.5     11.0617                2.798407
14371 4311       10.9815                2.798443
14386 4315.5     10.9076                2.798203
14401 4320       10.8291                2.797093
14416 4324.5     10.7546                  2.796699
14431 4329       10.6795                2.795778
14446 4333.5     10.5954                2.795033
14461 4338       10.5275                2.79442
14476 4342.5     10.4463                2.792666
14491 4347       10.3731                2.792113
14506 4351.5     10.295                2.79106
14521 4356       10.2152                2.78933
14536 4360.5     10.1383                2.788116
14551 4365       10.0561                2.788346
14566 4369.5     9.983568                 2.785755
14581 4374       9.911544                 2.784653
14596 4378.5     9.830371                 2.783643
14611 4383       9.751199                 2.782136
14626 4387.5     9.678885                 2.781532
14641 4392       9.603235                 2.781635
14656 4396.5     9.532384                 2.779439
14671 4401       9.45016                  2.777936
14686 4405.5     9.372072                 2.775283
14701 4410       9.295413                 2.774879
14716 4414.5     9.22114                  2.772607
14731 4419       9.145303                 2.770458
14746 4423.5     9.073227                 2.767664
14761 4428       8.991447                 2.765754
14776 4432.5     8.921814                 2.7625
14791 4437       8.840241                 2.760685
14806 4441.5     8.768962                 2.757534
14821 4446       8.694009                 2.7553
14836 4450.5     8.61633                  2.752373
14851 4455       8.537777                 2.749399
14866 4459.5     8.457498                 2.74602
14881 4464       8.384243                 2.742544
14896 4468.5     8.313454                 2.738937
14911 4473       8.232837                 2.734624
14926 4477.5     8.156624                 2.730082
14941 4482       8.08543                  2.724212
14956 4486.5     8.012471                 2.719848
14971 4491       7.939323                 2.714462
14986 4495.5     7.858593                 2.707765
15001 4500       7.779739                 2.701607