File: rawdata/SM_EC-EC_h1.txt
 SM_EC_EC
Creation Date : 12/21/2018 12:42:56 PM
User : PSCM

HeatFlow :
 Initial Mass : 0 mg
 Molar Mass : N/A

Index Time (s)   Furnace Temperature (Â°C) HeatFlow (mW)
1     0          4.556093                 -0.138715
17    4.8        4.40766                  -0.145669
33    9.6        4.252156                 -0.150276
49    14.4       3.945251                 -0.151498
65    19.2       3.77796                  -0.149033
81    24         3.604597                 -0.143422
97    28.8       3.459512                 -0.13755
113   33.6       3.40365                  -0.133359
129   38.4       3.349153                 -0.133373
145   43.2       3.332178                 -0.139568
161   48         3.35336                  -0.152606
177   52.8       3.349518                 -0.172445
193   57.6       3.377418                 -0.199148
209   62.4       3.404632                 -0.232577
225   67.2       3.451178                 -0.272041
241   72         3.500375                 -0.317616
257   76.8       3.549582                 -0.368266
273   81.6       3.598485                 -0.422529
289   86.4       3.649046                 -0.480914
305   91.2       3.712522                 -0.542923
321   96         3.773969                 -0.607952
337   100.8      3.838782                 -0.674677
353   105.6      3.901178                 -0.744217
369   110.4      3.970667                 -0.814468
385   115.2      4.043872                 -0.887043
401   120        4.11317                  -0.959312
417   124.8      4.184689                 -1.031514
433   129.6      4.256129                 -1.103513
449   134.4      4.331858                 -1.174931
465   139.2      4.408319                 -1.246033
481   144        4.484877                 -1.316868
497   148.8      4.561729                 -1.386622
513   153.6      4.640117                 -1.453726
529   158.4      4.718893                 -1.520265
545   163.2      4.798107                 -1.585079
561   168        4.842066                 -1.647118
577   172.8      4.864662                 -1.708704
593   177.6      4.896009                 -1.766253
609   182.4      4.948761                 -1.823364
625   187.2      5.015981                 -1.878491
641   192        5.089439                 -1.931551
657   196.8      5.163304                 -1.982719
673   201.6      5.244936                 -2.032509
689   206.4      5.33394                  -2.080436
705   211.2      5.409271                 -2.126575
721   216        5.487125                 -2.170451
737   220.8      5.572391                 -2.211635
753   225.6      5.657581                 -2.251598
769   230.4      5.746683                 -2.289436
785   235.2      5.828368                 -2.324976
801   240        5.914958                 -2.359784
817   244.8      5.990781                 -2.392112
833   249.6      6.088102                 -2.423217
849   254.4      6.172044                 -2.452785
865   259.2      6.253787                 -2.479538
881   264        6.350054                 -2.504836
897   268.8      6.442269                 -2.528667
913   273.6      6.532538                 -2.551679
929   278.4      6.614805                 -2.573103
945   283.2      6.699949                 -2.592655
961   288        6.784449                 -2.612806
977   292.8      6.879746                 -2.631072
993   297.6      6.972673                 -2.647636
1009  302.4      7.054602                 -2.663154
1025  307.2      7.149112                 -2.677386
1041  312        7.239066                 -2.69154
1057  316.8      7.330603                 -2.705252
1073  321.6      7.408777                 -2.717983
1089  326.4      7.498416                 -2.728641
1105  331.2      7.583015                 -2.74074
1121  336        7.676339                 -2.750116
1137  340.8      7.766286                 -2.759747
1153  345.6      7.850219                 -2.76826
1169  350.4      7.946273                 -2.775534
1185  355.2      8.032792                 -2.783228
1201  360        8.126041                 -2.78885
1217  364.8      8.209283                 -2.793815
1233  369.6      8.29292                  -2.798215
1249  374.4      8.376277                 -2.802731
1265  379.2      8.466126                 -2.807693
1281  384        8.561843                 -2.81294
1297  388.8      8.645036                 -2.816315
1313  393.6      8.735357                 -2.820734
1329  398.4      8.818003                 -2.82262
1345  403.2      8.909742                 -2.825008
1361  408        8.994603                 -2.827407
1377  412.8      9.076035                 -2.829778
1393  417.6      9.161176                 -2.831463
1409  422.4      9.251979                 -2.833114
1425  427.2      9.343605                 -2.834685
1441  432        9.422343                 -2.835529
1457  436.8      9.508216                 -2.836835
1473  441.6      9.596912                 -2.836272
1489  446.4      9.686041                 -2.836556
1505  451.2      9.770415                 -2.835915
1521  456        9.850764                 -2.835887
1537  460.8      9.940861                 -2.835071
1553  465.6      10.0192                -2.834494
1569  470.4      10.1136                -2.835294
1585  475.2      10.20216                 -2.835827
1601  480        10.2808                -2.835566
1617  484.8      10.37051                 -2.835032
1633  489.6      10.4589                -2.83374
1649  494.4      10.5495                -2.833015
1665  499.2      10.6277                -2.83254
1681  504        10.7084                -2.832206
1697  508.8      10.7907                -2.833178
1713  513.6      10.8769                -2.833346
1729  518.4      10.9656                -2.833285
1745  523.2      11.049                -2.832635
1761  528        11.1343                -2.831067
1777  532.8      11.2178                -2.830967
1793  537.6      11.3087                -2.829269
1809  542.4      11.3926                -2.828571
1825  547.2      11.4692                -2.827626
1841  552        11.5577                -2.826817
1857  556.8      11.6374                -2.826815
1873  561.6      11.7297                -2.826704
1889  566.4      11.8139                -2.825292
1905  571.2      11.8927                -2.825198
1921  576        11.9811                -2.825097
1937  580.8      12.0675                -2.825649
1953  585.6      12.15727                 -2.824562
1969  590.4      12.2331                -2.823676
1985  595.2      12.3124                -2.82414
2001  600        12.3951                -2.822852
2017  604.8      12.4814                -2.822368
2033  609.6      12.5711                -2.822961
2049  614.4      12.6503                -2.82192
2065  619.2      12.7327                -2.821013
2081  624        12.81913                 -2.819409
2097  628.8      12.9072                -2.81816
2113  633.6      12.9887                -2.816798
2129  638.4      13.0681                -2.815833
2145  643.2      13.15292                 -2.814792
2161  648        13.231                -2.813902
2177  652.8      13.3228                -2.81393
2193  657.6      13.4112                -2.814567
2209  662.4      13.4871                -2.81455
2225  667.2      13.5775                -2.814464
2241  672        13.6591                -2.813361
2257  676.8      13.7476                -2.812256
2273  681.6      13.8229                -2.811632
2289  686.4      13.90024                 -2.81239
2305  691.2      13.9883                -2.812642
2321  696        14.0752                -2.813027
2337  700.8      14.1661                -2.813268
2353  705.6      14.2381                -2.814219
2369  710.4      14.3183                -2.814227
2385  715.2      14.41                -2.813992
2401  720        14.4942                -2.812522
2417  724.8      14.5846                -2.811727
2433  729.6      14.6637                -2.810809
2449  734.4      14.7411                -2.810188
2465  739.2      14.8211                -2.809086
2481  744        14.9091                -2.808688
2497  748.8      14.9994                -2.808302
2513  753.6      15.0806                -2.809135
2529  758.4      15.1626                -2.80879
2545  763.2      15.24094                 -2.807981
2561  768        15.3316                -2.806597
2577  772.8      15.4131                -2.806137
2593  777.6      15.4893                -2.805997
2609  782.4      15.5763                -2.80549
2625  787.2      15.6547                -2.806211
2641  792        15.7473                -2.806154
2657  796.8      15.82667                 -2.806426
2673  801.6      15.903                -2.806318
2689  806.4      15.996                -2.805948
2705  811.2      16.0821                -2.805037
2721  816        16.1675                -2.804456
2737  820.8      16.2422                -2.802522
2753  825.6      16.3207                -2.801784
2769  830.4      16.405                -2.802444
2785  835.2      16.4924                -2.802657
2801  840        16.587                -2.802718
2817  844.8      16.664                -2.802819
2833  849.6      16.74201                 -2.803542
2849  854.4      16.8287                -2.803924
2865  859.2      16.91221                 -2.803443
2881  864        17.0026                -2.80399
2897  868.8      17.08009                 -2.804891
2913  873.6      17.15929                 -2.805052
2929  878.4      17.23856                 -2.80671
2945  883.2      17.327                -2.806348
2961  888        17.4112                -2.807193
2977  892.8      17.493                -2.808255
2993  897.6      17.57525                 -2.808131
3009  902.4      17.6593                -2.808522
3025  907.2      17.7469                -2.807187
3041  912        17.8314                -2.807788
3057  916.8      17.909                -2.80739
3073  921.6      17.9929                -2.807724
3089  926.4      18.0697                -2.808537
3105  931.2      18.1619                -2.808914
3121  936        18.2499                -2.808453
3137  940.8      18.3231                -2.810743
3153  945.6      18.4136                -2.811432
3169  950.4      18.4953                -2.810758
3185  955.2      18.584                -2.812966
3201  960        18.6584                -2.812053
3217  964.8      18.7353                -2.811602
3233  969.6      18.8213                -2.811859
3249  974.4      18.9087                -2.812209
3265  979.2      18.9982                -2.812531
3281  984        19.07022                 -2.813302
3297  988.8      19.15341                 -2.813767
3313  993.6      19.24259                 -2.814657
3329  998.4      19.3276                -2.813286
3345  1003.2     19.4147                -2.813362
3361  1008       19.4886                -2.812367
3377  1012.8     19.5695                -2.810961
3393  1017.6     19.6527                -2.811272
3409  1022.4     19.7391                -2.811678
3425  1027.2     19.8312                -2.811034
3441  1032       19.9115                -2.811842
3457  1036.8     19.99                -2.811768
3473  1041.6     20.0725                -2.811472
3489  1046.4     20.1594                -2.809174
3505  1051.2     20.2423                -2.809557
3521  1056       20.3207                -2.811407
3537  1060.8     20.4077                -2.811661
3553  1065.6     20.4839                -2.811313
3569  1070.4     20.5747                -2.811909
3585  1075.2     20.6567                -2.813479
3601  1080       20.734                -2.813293
3617  1084.8     20.8242                -2.814307
3633  1089.6     20.9077                -2.815434
3649  1094.4     20.9961                -2.81414
3665  1099.2     21.0762                -2.812737
3681  1104       21.15041                 -2.812572
3697  1108.8     21.2376                -2.811941
3713  1113.6     21.32033                 -2.812412
3729  1118.4     21.4113                -2.813717
3745  1123.2     21.49011                 -2.813192
3761  1128       21.5693                -2.8146
3777  1132.8     21.6562                -2.814517
3793  1137.6     21.7428                -2.813218
3809  1142.4     21.833                -2.812245
3825  1147.2     21.9057                -2.812423
3841  1152       21.985                -2.812215
3857  1156.8     22.0664                -2.810465
3873  1161.6     22.1531                -2.810195
3889  1166.4     22.2436                -2.810736
3905  1171.2     22.3184                -2.811382
3921  1176       22.4024                -2.809834
3937  1180.8     22.4868                -2.810781
3953  1185.6     22.57302                 -2.807686
3969  1190.4     22.6562                -2.807062
3985  1195.2     22.7357                -2.806385
4001  1200       22.8186                -2.805251
4017  1204.8     22.8973                -2.805129
4033  1209.6     22.986                -2.80433
4049  1214.4     23.0753                -2.804252
4065  1219.2     23.1536                -2.803931
4081  1224       23.2384                -2.804384
4097  1228.8     23.3176                -2.80294
4113  1233.6     23.4073                -2.80307
4129  1238.4     23.4898                -2.802672
4145  1243.2     23.56567                 -2.802673
4161  1248       23.6529                -2.804621
4177  1252.8     23.7286                -2.805324
4193  1257.6     23.8218                -2.805912
4209  1262.4     23.9011                -2.807072
4225  1267.2     23.978                -2.808414
4241  1272       24.0697                -2.808181
4257  1276.8     24.1563                -2.805747
4273  1281.6     24.2436                -2.80508
4289  1286.4     24.31731                 -2.805876
4305  1291.2     24.396                -2.804875
4321  1296       24.4788                  -2.805505
4337  1300.8     24.5675                -2.806346
4353  1305.6     24.6594                -2.806601
4369  1310.4     24.7365                -2.807528
4385  1315.2     24.8159                -2.809886
4401  1320       24.9001                -2.810766
4417  1324.8     24.9857                -2.809977
4433  1329.6     25.0746                -2.810652
4449  1334.4     25.1506                -2.810047
4465  1339.2     25.2288                -2.810317
4481  1344       25.3098                -2.810696
4497  1348.8     25.3996                -2.811
4513  1353.6     25.4846                -2.811279
4529  1358.4     25.5636                -2.810959
4545  1363.2     25.6464                -2.810585
4561  1368       25.7296                -2.808928
4577  1372.8     25.8189                -2.808063
4593  1377.6     25.898                -2.807071
4609  1382.4     25.977                -2.805481
4625  1387.2     26.0618                -2.806127
4641  1392       26.1404                -2.805089
4657  1396.8     26.2329                -2.805413
4673  1401.6     26.3199                -2.80526
4689  1406.4     26.3939                -2.807927
4705  1411.2     26.4836                -2.808337
4721  1416       26.5636                -2.808131
4737  1420.8     26.65106                 -2.805779
4753  1425.6     26.7303                -2.804499
4769  1430.4     26.8055                -2.8065
4785  1435.2     26.8942                -2.806835
4801  1440       26.9773                -2.808066
4817  1444.8     27.06794                 -2.808241
4833  1449.6     27.1428                -2.809181
4849  1454.4     27.2226                -2.809515
4865  1459.2     27.312                -2.808661
4881  1464       27.4004                -2.810616
4897  1468.8     27.487                -2.809341
4913  1473.6     27.5619                -2.808985
4929  1478.4     27.6402                -2.807417
4945  1483.2     27.7225                -2.806114
4961  1488       27.80988                 -2.805628
4977  1492.8     27.9031                -2.80607
4993  1497.6     27.982                -2.807118
5009  1502.4     28.0606                -2.807791
5025  1507.2     28.144                -2.807653
5041  1512       28.2291                -2.806698
5057  1516.8     28.3134                -2.805177
5073  1521.6     28.3908                -2.80614
5089  1526.4     28.4746                  -2.806276
5105  1531.2     28.5544                -2.806642
5121  1536       28.6427                -2.807071
5137  1540.8     28.7264                -2.805308
5153  1545.6     28.808                -2.806719
5169  1550.4     28.8937                -2.806529
5185  1555.2     28.972                -2.805507
5201  1560       29.0646                -2.804499
5217  1564.8     29.1423                -2.803507
5233  1569.6     29.2192                -2.801986
5249  1574.4     29.30743                 -2.801657
5265  1579.2     29.3856                -2.800851
5281  1584       29.4775                -2.79908
5297  1588.8     29.5637                -2.799833
5313  1593.6     29.6358                -2.799563
5329  1598.4     29.7282                -2.800327
5345  1603.2     29.8094                -2.798767
5361  1608       29.8979                -2.799195
5377  1612.8     29.9745                -2.799526
5393  1617.6     30.0531                  -2.799969
5409  1622.4     30.1351                -2.800208
5425  1627.2     30.2223                -2.801802
5441  1632       30.3139                -2.800713
5457  1636.8     30.38599                 -2.801757
5473  1641.6     30.4666                -2.801458
5489  1646.4     30.557                -2.802171
5505  1651.2     30.6422                -2.802056
5521  1656       30.7313                -2.802043
5537  1660.8     30.8078                -2.802074
5553  1665.6     30.8854                -2.801593
5569  1670.4     30.9667                -2.801694
5585  1675.2     31.0546                -2.80218
5601  1680       31.1467                -2.802742
5617  1684.8     31.2257                -2.805184
5633  1689.6     31.3029                -2.804699
5649  1694.4     31.3877                -2.806428
5665  1699.2     31.4725                -2.80519
5681  1704       31.5593                -2.806568
5697  1708.8     31.6381                -2.806446
5713  1713.6     31.7231                -2.806669
5729  1718.4     31.7977                -2.806136
5745  1723.2     31.8872                -2.807465
5761  1728       31.9703                -2.807058
5777  1732.8     32.049                -2.806872
5793  1737.6     32.1376                -2.807622
5809  1742.4     32.219                -2.805229
5825  1747.2     32.309                -2.803677
5841  1752       32.3848                -2.804082
5857  1756.8     32.4614                -2.803063
5873  1761.6     32.5505                -2.801766
5889  1766.4     32.6301                -2.802842
5905  1771.2     32.7236                -2.801816
5921  1776       32.8051                -2.801696
5937  1780.8     32.8809                -2.802913
5953  1785.6     32.969                -2.801994
5969  1790.4     33.054                -2.800645
5985  1795.2     33.1412                -2.801217
6001  1800       33.214                -2.800889
6017  1804.8     33.2932                -2.802087
6033  1809.6     33.3785                -2.802032
6049  1814.4     33.4678                -2.803157
6065  1819.2     33.5564                  -2.80429
6081  1824       33.6306                -2.804278
6097  1828.8     33.709                -2.805706
6113  1833.6     33.8003                -2.805612
6129  1838.4     33.8846                -2.805323
6145  1843.2     33.977                -2.803626
6161  1848       34.0519                -2.805105
6177  1852.8     34.1279                -2.80453
6193  1857.6     34.2088                -2.803019
6209  1862.4     34.2972                -2.803335
6225  1867.2     34.3895                -2.805108
6241  1872       34.4681                -2.805633
6257  1876.8     34.5472                -2.804835
6273  1881.6     34.6293                -2.803617
6289  1886.4     34.7171                -2.80499
6305  1891.2     34.8023                -2.804131
6321  1896       34.8811                -2.803665
6337  1900.8     34.9631                -2.80515
6353  1905.6     35.0392                -2.804267
6369  1910.4     35.1304                -2.804407
6385  1915.2     35.2148                -2.805364
6401  1920       35.29164                 -2.804322
6417  1924.8     35.3796                -2.806254
6433  1929.6     35.4623                -2.803114
6449  1934.4     35.551                -2.803859
6465  1939.2     35.62804                 -2.80471
6481  1944       35.70418                 -2.803382
6497  1948.8     35.7935                -2.801342
6513  1953.6     35.8764                -2.802709
6529  1958.4     35.9679                -2.80174
6545  1963.2     36.0476                -2.802531
6561  1968       36.1218                -2.802515
6577  1972.8     36.2111                -2.802349
6593  1977.6     36.2969                -2.802048
6609  1982.4     36.3874                -2.80248
6625  1987.2     36.4615                -2.803281
6641  1992       36.5387                -2.802254
6657  1996.8     36.6205                -2.803081
6673  2001.6     36.7092                -2.803093
6689  2006.4     36.8005                -2.804378
6705  2011.2     36.8739                -2.805206
6721  2016       36.9537                -2.806948
6737  2020.8     37.042                -2.804263
6753  2025.6     37.1278                -2.804706
6769  2030.4     37.2191                -2.802854
6785  2035.2     37.2938                -2.805067
6801  2040       37.3729                -2.806242
6817  2044.8     37.453                -2.804574
6833  2049.6     37.5406                -2.80476
6849  2054.4     37.6316                -2.806164
6865  2059.2     37.7117                -2.80746
6881  2064       37.7889                -2.807624
6897  2068.8     37.8722                -2.8068
6913  2073.6     37.9595                -2.807545
6929  2078.4     38.0451                -2.807184
6945  2083.2     38.1222                -2.808882
6961  2088       38.2044                -2.808553
6977  2092.8     38.2827                -2.808893
6993  2097.6     38.3754                -2.807801
7009  2102.4     38.457                -2.809264
7025  2107.2     38.53555                 -2.807684
7041  2112       38.62375                 -2.807149
7057  2116.8     38.70586                 -2.806304
7073  2121.6     38.79541                 -2.805214
7089  2126.4     38.8701                -2.805526
7105  2131.2     38.9465                -2.804941
7121  2136       39.0357                -2.803857
7137  2140.8     39.11789                 -2.802098
7153  2145.6     39.2103                -2.802984
7169  2150.4     39.2919                -2.80383
7185  2155.2     39.3659                -2.804457
7201  2160       39.4553                -2.805703
7217  2164.8     39.5383                -2.804536
7233  2169.6     39.6284                -2.803605
7249  2174.4     39.7001                -2.804275
7265  2179.2     39.7792                -2.805875
7281  2184       39.8651                -2.805933
7297  2188.8     39.9508                -2.804244
7313  2193.6     40.0432                -2.805155
7329  2198.4     40.1165                  -2.804484
7345  2203.2     40.1955                -2.807979
7361  2208       40.2859                -2.807769
7377  2212.8     40.3723                -2.806723
7393  2217.6     40.4614                -2.806443
7409  2222.4     40.53641                 -2.805727
7425  2227.2     40.6143                -2.804243
7441  2232       40.6956                -2.80439
7457  2236.8     40.7824                -2.804535
7473  2241.6     40.8764                -2.802796
7489  2246.4     40.9561                -2.804608
7505  2251.2     41.0326                -2.803743
7521  2256       41.1144                -2.804669
7537  2260.8     41.2003                -2.80273
7553  2265.6     41.28528                 -2.802602
7569  2270.4     41.36428                 -2.801801
7585  2275.2     41.4472                -2.802847
7601  2280       41.5291                -2.803651
7617  2284.8     41.6195                -2.803176
7633  2289.6     41.7003                -2.802652
7649  2294.4     41.7783                -2.803282
7665  2299.2     41.8644                -2.801078
7681  2304       41.9476                -2.799301
7697  2308.8     42.03877                 -2.79925
7713  2313.6     42.1137                -2.799268
7729  2318.4     42.1902                -2.797576
7745  2323.2     42.2804                -2.795719
7761  2328       42.3619                -2.798392
7777  2332.8     42.4516                -2.798945
7793  2337.6     42.5354                -2.796484
7809  2342.4     42.6074                -2.79751
7825  2347.2     42.6989                -2.79763
7841  2352       42.7822                -2.797557
7857  2356.8     42.8687                -2.795519
7873  2361.6     42.9491                -2.795791
7889  2366.4     43.0248                -2.797123
7905  2371.2     43.1092                -2.797602
7921  2376       43.19561                 -2.796719
7937  2380.8     43.28569                 -2.797854
7953  2385.6     43.3586                -2.797441
7969  2390.4     43.4378                -2.799107
7985  2395.2     43.5301                -2.798056
8001  2400       43.6148                -2.797174
8017  2404.8     43.7055                -2.79527
8033  2409.6     43.7798                -2.796378
8049  2414.4     43.855                -2.796846
8065  2419.2     43.9386                -2.797416
8081  2424       44.02659                 -2.796707
8097  2428.8     44.1206                -2.797407
8113  2433.6     44.19794                 -2.796126
8129  2438.4     44.2739                -2.798226
8145  2443.2     44.3591                -2.799345
8161  2448       44.4458                -2.798863
8177  2452.8     44.5306                -2.796468
8193  2457.6     44.6084                -2.797738
8209  2462.4     44.6885                -2.798984
8225  2467.2     44.771                -2.799297
8241  2472       44.8591                -2.799144
8257  2476.8     44.9427                -2.796561
8273  2481.6     45.0228                -2.799595
8289  2486.4     45.1077                -2.800222
8305  2491.2     45.1906                -2.797292
8321  2496       45.2789                -2.796547
8337  2500.8     45.3577                -2.796507
8353  2505.6     45.4352                -2.795309
8369  2510.4     45.5243                -2.794299
8385  2515.2     45.6011                -2.793168
8401  2520       45.6955                -2.792196
8417  2524.8     45.7788                -2.79158
8433  2529.6     45.8525                -2.791424
8449  2534.4     45.9425                -2.791169
8465  2539.2     46.0233                -2.78987
8481  2544       46.1099                -2.789499
8497  2548.8     46.1878                -2.789008
8513  2553.6     46.2633                -2.789504
8529  2558.4     46.354                -2.787455
8545  2563.2     46.4384                -2.790727
8561  2568       46.5308                -2.789698
8577  2572.8     46.604                -2.791766
8593  2577.6     46.6799                -2.792207
8609  2582.4     46.7714                -2.792842
8625  2587.2     46.8556                -2.791212
8641  2592       46.9465                -2.792473
8657  2596.8     47.02135                 -2.790764
8673  2601.6     47.0982                -2.789815
8689  2606.4     47.181                -2.789866
8705  2611.2     47.2702                -2.790998
8721  2616       47.3644                -2.789304
8737  2620.8     47.4407                -2.790238
8753  2625.6     47.5131                -2.792255
8769  2630.4     47.6011                -2.789922
8785  2635.2     47.6884                -2.789639
8801  2640       47.78001                 -2.788353
8817  2644.8     47.8526                -2.78915
8833  2649.6     47.9345                -2.78928
8849  2654.4     48.0122                -2.788608
8865  2659.2     48.1008                -2.788068
8881  2664       48.1883                -2.788552
8897  2668.8     48.26852                 -2.790261
8913  2673.6     48.3478                -2.789386
8929  2678.4     48.4324                -2.787271
8945  2683.2     48.521                -2.785942
8961  2688       48.602                -2.784421
8977  2692.8     48.6796                -2.785886
8993  2697.6     48.7628                -2.785238
9009  2702.4     48.8436                -2.785105
9025  2707.2     48.9332                -2.784072
9041  2712       49.0245                -2.78477
9057  2716.8     49.1001                -2.78285
9073  2721.6     49.185                -2.783054
9089  2726.4     49.2628                -2.783478
9105  2731.2     49.354                -2.781776
9121  2736       49.4357                -2.783851
9137  2740.8     49.5117                -2.78347
9153  2745.6     49.5984                -2.785894
9169  2750.4     49.6759                -2.787621
9185  2755.2     49.7701                -2.789923
9201  2760       49.8463                -2.790494
9217  2764.8     49.9246                -2.793142
9233  2769.6     50.0162                -2.792495
9249  2774.4     50.1011                -2.792818
9265  2779.2     50.1897                -2.792012
9281  2784       50.2651                -2.789835
9297  2788.8     50.3383                -2.791718
9313  2793.6     50.4252                -2.792098
9329  2798.4     50.51305                 -2.792438
9345  2803.2     50.6051                -2.793676
9361  2808       50.68                -2.792237
9377  2812.8     50.7562                -2.793407
9393  2817.6     50.8455                -2.794636
9409  2822.4     50.9344                -2.794158
9425  2827.2     51.0204                -2.795056
9441  2832       51.091                -2.794563
9457  2836.8     51.1713                -2.796342
9473  2841.6     51.2539                -2.796646
9489  2846.4     51.3451                -2.796692
9505  2851.2     51.4349                -2.797478
9521  2856       51.5082                -2.796019
9537  2860.8     51.5886                -2.796747
9553  2865.6     51.6757                -2.793171
9569  2870.4     51.7613                -2.791811
9585  2875.2     51.8494                -2.791941
9601  2880       51.9233                -2.792511
9617  2884.8     52.0042                -2.793928
9633  2889.6     52.0874                -2.79179
9649  2894.4     52.1758                -2.790651
9665  2899.2     52.2658                -2.790662
9681  2904       52.3457                -2.793413
9697  2908.8     52.4233                -2.791212
9713  2913.6     52.5065                -2.791275
9729  2918.4     52.5925                -2.792776
9745  2923.2     52.6756                -2.792393
9761  2928       52.75335                 -2.793552
9777  2932.8     52.8387                -2.79424
9793  2937.6     52.9192                -2.794104
9809  2942.4     53.0111                -2.794408
9825  2947.2     53.0914                -2.79707
9841  2952       53.1681                -2.795947
9857  2956.8     53.2576                -2.795729
9873  2961.6     53.3384                -2.797073
9889  2966.4     53.4303                -2.79404
9905  2971.2     53.5108                -2.794118
9921  2976       53.5843                -2.794327
9937  2980.8     53.6711                -2.793971
9953  2985.6     53.7509                -2.794412
9969  2990.4     53.8427                -2.794615
9985  2995.2     53.927                -2.794302
10001 3000       54.0013                -2.794034
10017 3004.8     54.0913                -2.794502
10033 3009.6     54.174                -2.795781
10049 3014.4     54.259                -2.795411
10065 3019.2     54.3354                -2.79584
10081 3024       54.4128                -2.794379
10097 3028.8     54.5014                -2.793519
10113 3033.6     54.5894                -2.795649
10129 3038.4     54.679                   -2.793252
10145 3043.2     54.74916                 -2.792898
10161 3048       54.829                -2.793395
10177 3052.8     54.9213                -2.791106
10193 3057.6     55.008                -2.790503
10209 3062.4     55.0929                -2.788069
10225 3067.2     55.1624                -2.789274
10241 3072       55.2459                -2.787906
10257 3076.8     55.33257                 -2.787611
10273 3081.6     55.419                -2.786069
10289 3086.4     55.5104                -2.785988
10305 3091.2     55.5868                -2.78585
10321 3096       55.6638                -2.786168
10337 3100.8     55.7511                -2.789123
10353 3105.6     55.8373                -2.786331
10369 3110.4     55.92525                 -2.78481
10385 3115.2     56.002                -2.786925
10401 3120       56.082                -2.78952
10417 3124.8     56.1598                -2.789114
10433 3129.6     56.2499                -2.787143
10449 3134.4     56.3363                -2.788993
10465 3139.2     56.4157                -2.788371
10481 3144       56.4955                -2.787829
10497 3148.8     56.5816                -2.787623
10513 3153.6     56.6685                -2.790156
10529 3158.4     56.7555                -2.788672
10545 3163.2     56.8314                -2.786898
10561 3168       56.9121                -2.787382
10577 3172.8     56.9919                -2.785064
10593 3177.6     57.0821                -2.784952
10609 3182.4     57.1727                -2.786574
10625 3187.2     57.2475                -2.788335
10641 3192       57.3311                -2.786217
10657 3196.8     57.4102                -2.788307
10673 3201.6     57.5005                -2.787715
10689 3206.4     57.5848                -2.789073
10705 3211.2     57.6585                -2.787717
10721 3216       57.7438                -2.789958
10737 3220.8     57.8257                -2.789548
10753 3225.6     57.9163                -2.788165
10769 3230.4     57.9963                -2.789047
10785 3235.2     58.0721                -2.789231
10801 3240       58.1639                -2.789662
10817 3244.8     58.2495                -2.787315
10833 3249.6     58.3347                -2.786127
10849 3254.4     58.4088                -2.785084
10865 3259.2     58.4824                -2.786926
10881 3264       58.5749                -2.786229
10897 3268.8     58.66231                 -2.784483
10913 3273.6     58.7555                -2.783644
10929 3278.4     58.8282                -2.784495
10945 3283.2     58.9021                -2.782029
10961 3288       58.9918                -2.782832
10977 3292.8     59.0819                -2.783338
10993 3297.6     59.169                -2.781858
11009 3302.4     59.2398                -2.781277
11025 3307.2     59.317                -2.785266
11041 3312       59.4038                -2.782978
11057 3316.8     59.493                -2.783559
11073 3321.6     59.5832                -2.784277
11089 3326.4     59.6541                -2.783837
11105 3331.2     59.7343                -2.784428
11121 3336       59.8247                -2.784511
11137 3340.8     59.9113                -2.784681
11153 3345.6     60.0009                -2.782564
11169 3350.4     60.0732                  -2.78285
11185 3355.2     60.1518                -2.782787
11201 3360       60.2369                -2.782927
11217 3364.8     60.32305                 -2.781596
11233 3369.6     60.4159                -2.784332
11249 3374.4     60.4944                -2.782478
11265 3379.2     60.5713                -2.78552
11281 3384       60.655                -2.78375
11297 3388.8     60.7407                -2.784622
11313 3393.6     60.8287                -2.784453
11329 3398.4     60.90635                 -2.782552
11345 3403.2     60.9868                -2.78511
11361 3408       61.067                -2.78196
11377 3412.8     61.1554                -2.782881
11393 3417.6     61.2388                -2.782288
11409 3422.4     61.3187                -2.781006
11425 3427.2     61.4025                -2.785559
11441 3432       61.4872                -2.783581
11457 3436.8     61.5757                -2.780412
11473 3441.6     61.6528                -2.781389
11489 3446.4     61.7321                -2.781341
11505 3451.2     61.8184                -2.780474
11521 3456       61.8993                -2.780556
11537 3460.8     61.9907                -2.780922
11553 3465.6     62.0771                -2.781428
11569 3470.4     62.15046                 -2.782301
11585 3475.2     62.2365                -2.781155
11601 3480       62.317                -2.78292
11617 3484.8     62.4079                -2.783257
11633 3489.6     62.4902                -2.781852
11649 3494.4     62.5627                -2.783395
11665 3499.2     62.6508                -2.786949
11681 3504       62.7295                -2.787418
11697 3508.8     62.8207                -2.787836
11713 3513.6     62.9021                -2.786354
11729 3518.4     62.9768                -2.790414
11745 3523.2     63.0692                -2.790727
11761 3528       63.1536                -2.788477
11777 3532.8     63.2411                -2.788288
11793 3537.6     63.3179                -2.788519
11809 3542.4     63.3929                -2.787974
11825 3547.2     63.479                -2.789413
11841 3552       63.5664                -2.788957
11857 3556.8     63.6595                -2.789544
11873 3561.6     63.7334                -2.790026
11889 3566.4     63.8108                -2.790865
11905 3571.2     63.8985                -2.789456
11921 3576       63.9863                -2.790867
11937 3580.8     64.0742                -2.788136
11953 3585.6     64.1431                -2.790033
11969 3590.4     64.2231                -2.791023
11985 3595.2     64.31023                 -2.791124
12001 3600       64.3988                -2.792837
12017 3604.8     64.4891                -2.791389
12033 3609.6     64.5597                -2.790935
12049 3614.4     64.6399                -2.791458
12065 3619.2     64.7321                -2.792016
12081 3624       64.8162                -2.790591
12097 3628.8     64.9028                -2.787728
12113 3633.6     64.9728                -2.788329
12129 3638.4     65.0567                -2.786796
12145 3643.2     65.1411                  -2.786087
12161 3648       65.2303                -2.786099
12177 3652.8     65.3204                -2.786524
12193 3657.6     65.3968                -2.786689
12209 3662.4     65.4744                -2.787237
12225 3667.2     65.5608                -2.786438
12241 3672       65.6481                -2.788598
12257 3676.8     65.7311                -2.78494
12273 3681.6     65.8092                -2.788825
12289 3686.4     65.8901                -2.789823
12305 3691.2     65.97167                 -2.79025
12321 3696       66.0614                -2.788974
12337 3700.8     66.1454                -2.789595
12353 3705.6     66.2246                -2.790929
12369 3710.4     66.309                -2.790721
12385 3715.2     66.39144                 -2.792403
12401 3720       66.47994                 -2.786894
12417 3724.8     66.5637                -2.786318
12433 3729.6     66.6395                -2.787936
12449 3734.4     66.7259                -2.787246
12465 3739.2     66.8033                -2.788208
12481 3744       66.8949                -2.786883
12497 3748.8     66.9812                -2.786559
12513 3753.6     67.05599                 -2.787009
12529 3758.4     67.1438                -2.788388
12545 3763.2     67.2265                -2.78763
12561 3768       67.3123                -2.788137
12577 3772.8     67.38788                 -2.787321
12593 3777.6     67.4659                -2.785927
12609 3782.4     67.5563                -2.787281
12625 3787.2     67.64113                 -2.787413
12641 3792       67.7293                -2.788087
12657 3796.8     67.804                -2.787171
12673 3801.6     67.8785                -2.786506
12689 3806.4     67.9747                -2.787352
12705 3811.2     68.0626                -2.785551
12721 3816       68.14706                 -2.782938
12737 3820.8     68.22                -2.782669
12753 3825.6     68.2943                -2.782802
12769 3830.4     68.385                -2.78017
12785 3835.2     68.4722                -2.782026
12801 3840       68.5648                -2.782649
12817 3844.8     68.6399                -2.782548
12833 3849.6     68.7138                -2.78427
12849 3854.4     68.8027                -2.783232
12865 3859.2     68.8936                -2.782061
12881 3864       68.9801                -2.783478
12897 3868.8     69.0512                -2.782301
12913 3873.6     69.1294                -2.783634
12929 3878.4     69.2162                -2.78463
12945 3883.2     69.3065                -2.783957
12961 3888       69.3942                -2.785339
12977 3892.8     69.4665                -2.78477
12993 3897.6     69.5433                -2.787093
13009 3902.4     69.6368                -2.787434
13025 3907.2     69.7224                -2.785732
13041 3912       69.8139                -2.785165
13057 3916.8     69.8858                -2.786307
13073 3921.6     69.961                -2.785055
13089 3926.4     70.0452                -2.78682
13105 3931.2     70.1338                -2.784382
13121 3936       70.2286                -2.787251
13137 3940.8     70.3044                -2.788451
13153 3945.6     70.3796                -2.788613
13169 3950.4     70.4677                -2.787925
13185 3955.2     70.554                -2.78883
13201 3960       70.6371                -2.788096
13217 3964.8     70.715                -2.788491
13233 3969.6     70.79473                 -2.788486
13249 3974.4     70.8777                -2.788331
13265 3979.2     70.9677                -2.786928
13281 3984       71.052                -2.785809
13297 3988.8     71.12907                 -2.788365
13313 3993.6     71.2114                -2.787048
13329 3998.4     71.2968                -2.785236
13345 4003.2     71.3866                -2.786882
13361 4008       71.4642                -2.784455
13377 4012.8     71.5437                -2.78428
13393 4017.6     71.6283                -2.782582
13409 4022.4     71.7073                -2.784333
13425 4027.2     71.8026                -2.781895
13441 4032       71.8879                -2.785706
13457 4036.8     71.9619                -2.784137
13473 4041.6     72.0445                -2.784498
13489 4046.4     72.1289                -2.781598
13505 4051.2     72.2192                -2.779567
13521 4056       72.2978                  -2.783759
13537 4060.8     72.3737                -2.783926
13553 4065.6     72.4622                -2.785994
13569 4070.4     72.54075                 -2.783006
13585 4075.2     72.633                -2.784392
13601 4080       72.7115                -2.784999
13617 4084.8     72.7898                -2.786444
13633 4089.6     72.8823                -2.787434
13649 4094.4     72.962                -2.786799
13665 4099.2     73.0502                -2.785361
13681 4104       73.1311                -2.787312
13697 4108.8     73.20319                 -2.785532
13713 4113.6     73.2925                -2.783861
13729 4118.4     73.3763                -2.783551
13745 4123.2     73.4671                -2.785207
13761 4128       73.5469                -2.782762
13777 4132.8     73.6192                -2.782908
13793 4137.6     73.7106                -2.784247
13809 4142.4     73.794                -2.784816
13825 4147.2     73.8848                -2.785072
13841 4152       73.9594                -2.783026
13857 4156.8     74.0357                -2.784921
13873 4161.6     74.12063                 -2.787222
13889 4166.4     74.2078                -2.784864
13905 4171.2     74.3005                -2.78198
13921 4176       74.3721                -2.78543
13937 4180.8     74.4496                -2.78655
13953 4185.6     74.541                -2.786582
13969 4190.4     74.6306                -2.784245
13985 4195.2     74.7145                -2.782555
14001 4200       74.7841                -2.785114
14017 4204.8     74.8627                -2.785508
14033 4209.6     74.9523                -2.785738
14049 4214.4     75.04218                 -2.781255
14065 4219.2     75.1348                -2.780023
14081 4224       75.2084                -2.783448
14097 4228.8     75.2817                -2.786044
14113 4233.6     75.372                -2.785936
14129 4238.4     75.4574                -2.783628
14145 4243.2     75.5502                -2.784722
14161 4248       75.6223                -2.78609
14177 4252.8     75.6978                -2.786496
14193 4257.6     75.7824                -2.787759
14209 4262.4     75.8717                -2.790344
14225 4267.2     75.962                -2.788243
14241 4272       76.0354                -2.785772
14257 4276.8     76.11518                 -2.787474
14273 4281.6     76.2048                -2.788834
14289 4286.4     76.2893                -2.784213
14305 4291.2     76.377                -2.785426
14321 4296       76.4523                -2.786896
14337 4300.8     76.5339                -2.786211
14353 4305.6     76.6167                -2.785133
14369 4310.4     76.70338                 -2.787732
14385 4315.2     76.7909                -2.786651
14401 4320       76.8694                -2.790256
14417 4324.8     76.9485                -2.790199
14433 4329.6     77.0347                -2.791003
14449 4334.4     77.1222                -2.788206
14465 4339.2     77.2072                -2.789955
14481 4344       77.28287                 -2.787802
14497 4348.8     77.36536                 -2.791353
14513 4353.6     77.4436                -2.792174
14529 4358.4     77.5363                -2.790006
14545 4363.2     77.618                -2.790586
14561 4368       77.6961                -2.790049
14577 4372.8     77.7824                -2.789448
14593 4377.6     77.8652                -2.790106
14609 4382.4     77.9547                -2.789264
14625 4387.2     78.0326                -2.787792
14641 4392       78.10853                 -2.788939
14657 4396.8     78.1984                -2.787377
14673 4401.6     78.2786                -2.787434
14689 4406.4     78.36937                 -2.788966
14705 4411.2     78.4527                -2.78756
14721 4416       78.528                -2.787325
14737 4420.8     78.6169                -2.788173
14753 4425.6     78.6973                -2.786218
14769 4430.4     78.7863                -2.788201
14785 4435.2     78.8621                -2.787706
14801 4440       78.9397                -2.789082
14817 4444.8     79.0303                -2.789579
14833 4449.6     79.1123                -2.789415
14849 4454.4     79.2011                -2.786974
14865 4459.2     79.2769                -2.789197
14881 4464       79.3542                -2.790955
14897 4468.8     79.4482                -2.791387
14913 4473.6     79.53437                 -2.789022
14929 4478.4     79.6199                -2.78971
14945 4483.2     79.6953                -2.78663
14961 4488       79.7694                -2.787697
14977 4492.8     79.8612                -2.789295
14993 4497.6     79.94579                 -2.789366
15001 4500       79.9874                -2.789785