File: rawdata/SM_EC-EC_c2.txt
 SM_EC_EC
Creation Date : 12/21/2018 12:43:48 PM
User : PSCM

HeatFlow :
 Initial Mass : 0 mg
 Molar Mass : N/A

Index Time (s)   Furnace Temperature (Â°C) HeatFlow (mW)
1     0          82.717                -0.213966
16    4.5        83.0112                -0.20117
31    9          83.3263                -0.191614
46    13.5       83.9103                -0.188079
61    18         84.3168                -0.188251
76    22.5       84.5131                -0.188123
91    27         84.5167                -0.185519
106   31.5       84.4496                  -0.17589
121   36         84.4647                -0.159784
136   40.5       84.4677                -0.138221
151   45         84.4388                -0.108811
166   49.5       84.3977                -0.075092
181   54         84.3472                -0.034296
196   58.5       84.3182                0.011281
211   63         84.274                0.06101
226   67.5       84.2145                0.115801
241   72         84.1518                0.176258
256   76.5       84.0872                0.237864
271   81         84.0321                0.30159
286   85.5       83.9763                0.368509
301   90         83.9019                0.436742
316   94.5       83.8373                0.506409
331   99         83.76739                 0.576011
346   103.5      83.698                0.647121
361   108        83.6344                0.718426
376   112.5      83.564                0.789548
391   117        83.4945                0.861097
406   121.5      83.4195                0.933208
421   126        83.34545                 1.004356
436   130.5      83.2753                1.075373
451   135        83.2024                1.143704
466   139.5      83.1289                1.209885
481   144        83.0542                1.277465
496   148.5      82.97933                 1.342305
511   153        82.9052                1.405811
526   157.5      82.8302                1.466109
541   162        82.7547                1.525867
556   166.5      82.6933                1.583836
571   171        82.684                1.642198
586   175.5      82.6463                1.696813
601   180        82.5656                1.751006
616   184.5      82.476                1.803178
631   189        82.3942                1.852339
646   193.5      82.3269                1.899805
661   198        82.2646                1.946015
676   202.5      82.1868                1.985596
691   207        82.1055                2.030002
706   211.5      82.026                2.07146
721   216        81.95                2.112516
736   220.5      81.88016                 2.147088
751   225        81.7929                2.181485
766   229.5      81.7102                2.213593
781   234        81.63233                 2.244196
796   238.5      81.5587                2.277548
811   243        81.485                2.305692
826   247.5      81.3958                2.334075
841   252        81.3109                2.359673
856   256.5      81.2396                2.384962
871   261        81.164                2.409831
886   265.5      81.0845                2.431068
901   270        81.0026                2.452779
916   274.5      80.9141                2.473796
931   279        80.8333                2.491902
946   283.5      80.7558                2.512182
961   288        80.6841                2.525951
976   292.5      80.6066                2.545376
991   297        80.5135                2.559571
1006  301.5      80.4394                2.576509
1021  306        80.357                2.588396
1036  310.5      80.2817                2.602685
1051  315        80.2041                2.615012
1066  319.5      80.1168                2.628384
1081  324        80.0386                2.64196
1096  328.5      79.9499                2.649255
1111  333        79.8792                2.657666
1126  337.5      79.7998                2.66699
1141  342        79.7158                2.676084
1156  346.5      79.6366                2.682613
1171  351        79.5583                2.692921
1186  355.5      79.481                2.701089
1201  360        79.40471                 2.709042
1216  364.5      79.3146                2.715495
1231  369        79.234                   2.724484
1246  373.5      79.1537                2.728366
1261  378        79.08024                 2.736995
1276  382.5      79.0109                2.743441
1291  387        78.9221                2.746107
1306  391.5      78.8371                2.749226
1321  396        78.763                2.757082
1336  400.5      78.687                2.760662
1351  405        78.6097                2.764533
1366  409.5      78.5279                2.76888
1381  414        78.4407                2.770812
1396  418.5      78.3612                2.774308
1411  423        78.2873                2.774994
1426  427.5      78.2108                2.775506
1441  432        78.1274                2.778342
1456  436.5      78.0427                2.781958
1471  441        77.9742                2.784416
1486  445.5      77.8923                2.785891
1501  450        77.8168                2.787583
1516  454.5      77.7387                2.788966
1531  459        77.6518                2.791019
1546  463.5      77.5772                2.790142
1561  468        77.4903                2.792037
1576  472.5      77.41831                 2.790815
1591  477        77.3481                2.792795
1606  481.5      77.2621                2.793241
1621  486        77.1789                2.794499
1636  490.5      77.1019                2.7959
1651  495        77.0251                2.794361
1666  499.5      76.9521                2.795312
1681  504        76.8668                2.7986
1696  508.5      76.7834                2.798226
1711  513        76.7046                2.797366
1726  517.5      76.6321                2.796152
1741  522        76.5576                2.796738
1756  526.5      76.47187                 2.796762
1771  531        76.39                2.797679
1786  535.5      76.3182                2.798131
1801  540        76.2427                2.798638
1816  544.5      76.1643                2.801504
1831  549        76.0789                2.800971
1846  553.5      75.9947                2.798375
1861  558        75.9234                2.799247
1876  562.5      75.843                2.801452
1891  567        75.76911                 2.801937
1906  571.5      75.6949                2.799621
1921  576        75.6094                2.800054
1936  580.5      75.53288                 2.801675
1951  585        75.45                2.801281
1966  589.5      75.3772                2.803459
1981  594        75.30406                 2.804501
1996  598.5      75.21868                 2.804325
2011  603        75.1372                2.80371
2026  607.5      75.0571                2.801312
2041  612        74.9833                2.802564
2056  616.5      74.9138                2.804435
2071  621        74.8234                2.801288
2086  625.5      74.7432                2.803382
2101  630        74.6728                2.803502
2116  634.5      74.5952                2.802397
2131  639        74.5194                2.806553
2146  643.5      74.4397                2.805389
2161  648        74.35408                 2.805582
2176  652.5      74.2782                2.805469
2191  657        74.1983                2.806201
2206  661.5      74.12573                 2.804574
2221  666        74.0532                2.805616
2236  670.5      73.96689                 2.806725
2251  675        73.8916                2.80622
2266  679.5      73.8082                2.806183
2281  684        73.7346                2.806417
2296  688.5      73.6598                2.808098
2311  693        73.5749                2.805899
2326  697.5      73.4949                2.810288
2341  702        73.4155                2.809576
2356  706.5      73.3412                2.811852
2371  711        73.27                2.811745
2386  715.5      73.1821                2.812849
2401  720        73.1024                  2.809335
2416  724.5      73.0304                2.808033
2431  729        72.9551                2.804092
2446  733.5      72.8792                2.79854
2461  738        72.7927                2.795005
2476  742.5      72.7092                2.791865
2491  747        72.6355                2.784104
2506  751.5      72.5582                2.780609
2521  756        72.485                2.774407
2536  760.5      72.4117                2.76768
2551  765        72.3265                2.763322
2566  769.5      72.2503                2.761196
2581  774        72.1676                2.758491
2596  778.5      72.0936                2.761359
2611  783        72.0226                2.761611
2626  787.5      71.9387                2.763025
2641  792        71.8563                2.762404
2656  796.5      71.7746                2.766197
2671  801        71.7013                2.768062
2686  805.5      71.631                2.76958
2701  810        71.5433                2.772572
2716  814.5      71.464                2.774423
2731  819        71.3917                2.776149
2746  823.5      71.317                2.777023
2761  828        71.2384                2.77794
2776  832.5      71.1595                2.780134
2791  837        71.0733                2.780347
2806  841.5      70.997                2.78038
2821  846        70.918                2.784121
2836  850.5      70.8473                2.784001
2851  855        70.7734                2.785133
2866  859.5      70.6875                2.785601
2881  864        70.612                2.785997
2896  868.5      70.528                2.786881
2911  873        70.4562                2.787432
2926  877.5      70.3858                2.786935
2941  882        70.3007                2.786553
2956  886.5      70.2169                2.788501
2971  891        70.1359                2.788219
2986  895.5      70.0602                2.786926
3001  900        69.9925                2.786109
3016  904.5      69.906                2.789605
3031  909        69.8255                2.788606
3046  913.5      69.75241                 2.786856
3061  918        69.6772                2.788013
3076  922.5      69.5999                2.791342
3091  927        69.5173                2.792106
3106  931.5      69.4331                2.792677
3121  936        69.3573                2.792325
3136  940.5      69.2793                2.793469
3151  945        69.2085                2.79043
3166  949.5      69.1338                2.793354
3181  954        69.0491                2.793224
3196  958.5      68.9727                2.792556
3211  963        68.8892                2.794464
3226  967.5      68.8174                2.794822
3241  972        68.7416                2.792987
3256  976.5      68.6573                2.793539
3271  981        68.577                2.793457
3286  985.5      68.4969                2.792605
3301  990        68.4236                2.792227
3316  994.5      68.3534                2.793486
3331  999        68.2667                2.791502
3346  1003.5     68.1877                2.792428
3361  1008       68.1146                2.790788
3376  1012.5     68.0398                2.792167
3391  1017       67.963                2.793322
3406  1021.5     67.8829                2.792232
3421  1026       67.7975                2.793037
3436  1030.5     67.7199                2.794278
3451  1035       67.6425                2.793407
3466  1039.5     67.5699                2.792576
3481  1044       67.4976                2.793407
3496  1048.5     67.4106                2.792029
3511  1053       67.33575                 2.792018
3526  1057.5     67.254                2.795201
3541  1062       67.1798                2.795291
3556  1066.5     67.1085                2.792076
3571  1071       67.0219                  2.795037
3586  1075.5     66.9417                2.792555
3601  1080       66.8593                2.791784
3616  1084.5     66.7861                2.794462
3631  1089       66.7153                2.793897
3646  1093.5     66.6293                2.792708
3661  1098       66.5497                2.791054
3676  1102.5     66.4767                2.793079
3691  1107       66.401                2.791163
3706  1111.5     66.32575                 2.795601
3721  1116       66.2399                2.796295
3736  1120.5     66.1577                2.795476
3751  1125       66.0835                2.795798
3766  1129.5     66.0065                2.795762
3781  1134       65.9331                2.797951
3796  1138.5     65.8574                2.797262
3811  1143       65.7706                2.797091
3826  1147.5     65.6976                2.794642
3841  1152       65.6153                2.795688
3856  1156.5     65.5433                2.793448
3871  1161       65.4697                2.793609
3886  1165.5     65.3863                2.795725
3901  1170       65.3043                2.796083
3916  1174.5     65.22219                 2.795634
3931  1179       65.1466                2.792763
3946  1183.5     65.078                2.792091
3961  1188       64.9924                2.79338
3976  1192.5     64.9107                2.793012
3991  1197       64.8398                2.791466
4006  1201.5     64.7649                2.791398
4021  1206       64.68884                 2.792999
4036  1210.5     64.6062                2.793
4051  1215       64.5221                2.792482
4066  1219.5     64.4442                2.790924
4081  1224       64.3702                2.791661
4096  1228.5     64.2959                2.794203
4111  1233       64.2209                2.788841
4126  1237.5     64.1342                2.789779
4141  1242       64.0612                2.789691
4156  1246.5     63.9768                2.789362
4171  1251       63.9051                2.790119
4186  1255.5     63.8325                2.790086
4201  1260       63.7475                2.78789
4216  1264.5     63.6675                2.788453
4231  1269       63.5853                2.790153
4246  1273.5     63.5111                2.788938
4261  1278       63.4403                2.789531
4276  1282.5     63.3567                2.789497
4291  1287       63.27458                 2.788645
4306  1291.5     63.2016                2.790095
4321  1296       63.1284                2.787604
4336  1300.5     63.053                2.789354
4351  1305       62.9636                2.789044
4366  1309.5     62.8825                2.788893
4381  1314       62.8066                2.79015
4396  1318.5     62.7337                2.789464
4411  1323       62.6582                2.789187
4426  1327.5     62.5808                2.786747
4441  1332       62.4947                2.787708
4456  1336.5     62.426                2.788753
4471  1341       62.3419                2.789388
4486  1345.5     62.2688                2.788443
4501  1350       62.1896                2.787562
4516  1354.5     62.1074                2.788222
4531  1359       62.0299                2.786889
4546  1363.5     61.9471                2.785679
4561  1368       61.8755                2.7888
4576  1372.5     61.8047                2.787278
4591  1377       61.7189                2.783866
4606  1381.5     61.6359                2.785754
4621  1386       61.5639                2.784723
4636  1390.5     61.4897                2.784273
4651  1395       61.4152                2.783847
4666  1399.5     61.3335                2.784777
4681  1404       61.2487                2.787184
4696  1408.5     61.1702                2.783783
4711  1413       61.0956                2.785883
4726  1417.5     61.0208                2.788403
4741  1422       60.9448                2.786395
4756  1426.5     60.85892                 2.784896
4771  1431       60.7885                2.785315
4786  1435.5     60.7051                2.785443
4801  1440       60.6325                2.784011
4816  1444.5     60.5529                2.785476
4831  1449       60.4699                2.78499
4846  1453.5     60.39388                 2.784631
4861  1458       60.3105                2.78658
4876  1462.5     60.23846                 2.783104
4891  1467       60.1652                2.785508
4906  1471.5     60.0833                2.78413
4921  1476       60                2.786049
4936  1480.5     59.929                2.785821
4951  1485       59.854                2.786407
4966  1489.5     59.7791                2.787013
4981  1494       59.6903                2.785733
4996  1498.5     59.6086                2.787085
5011  1503       59.5304                2.785687
5026  1507.5     59.459                2.786059
5041  1512       59.3839                2.785163
5056  1516.5     59.3081                2.785333
5071  1521       59.2211                2.784483
5086  1525.5     59.15208                 2.783113
5101  1530       59.0695                2.784866
5116  1534.5     58.9953                2.786117
5131  1539       58.9213                2.785574
5146  1543.5     58.8351                2.784844
5161  1548       58.759                2.785268
5176  1552.5     58.67233                 2.782765
5191  1557       58.6026                2.780521
5206  1561.5     58.5298                2.779419
5221  1566       58.4466                  2.779412
5236  1570.5     58.3647                2.779645
5251  1575       58.2892                2.777926
5266  1579.5     58.2135                2.780399
5281  1584       58.1439                2.781863
5296  1588.5     58.0587                2.780564
5311  1593       57.977                2.78049
5326  1597.5     57.8967                2.778867
5341  1602       57.8238                2.781167
5356  1606.5     57.7481                2.777885
5371  1611       57.6701                2.780125
5386  1615.5     57.5866                2.779658
5401  1620       57.51581                 2.77838
5416  1624.5     57.4351                2.779249
5431  1629       57.3602                2.779152
5446  1633.5     57.27937                 2.777596
5461  1638       57.1952                2.778003
5476  1642.5     57.1219                2.777272
5491  1647       57.0372                2.776524
5506  1651.5     56.9666                2.776615
5521  1656       56.8906                2.776793
5536  1660.5     56.80738                 2.777369
5551  1665       56.7281                2.777873
5566  1669.5     56.6532                2.777029
5581  1674       56.579                2.778138
5596  1678.5     56.50506                 2.77868
5611  1683       56.41863                 2.778035
5626  1687.5     56.3372                2.7786
5641  1692       56.2594                2.779654
5656  1696.5     56.1865                2.780714
5671  1701       56.1133                2.779463
5686  1705.5     56.0353                2.781121
5701  1710       55.95                2.78157
5716  1714.5     55.8766                2.780208
5731  1719       55.7977                2.780693
5746  1723.5     55.7261                2.782177
5761  1728       55.6432                2.784539
5776  1732.5     55.5555                2.78347
5791  1737       55.4844                2.781633
5806  1741.5     55.40047                 2.782204
5821  1746       55.32912                 2.781825
5836  1750.5     55.2518                2.7814
5851  1755       55.1707                2.783799
5866  1759.5     55.09373                 2.78202
5881  1764       55.0165                2.782213
5896  1768.5     54.9404                2.780435
5911  1773       54.8699                2.782738
5926  1777.5     54.7856                2.783041
5941  1782       54.7044                2.78317
5956  1786.5     54.6221                2.782077
5971  1791       54.5509                2.783122
5986  1795.5     54.4794                2.784578
6001  1800       54.3974                2.783145
6016  1804.5     54.3133                2.782879
6031  1809       54.2416                2.783829
6046  1813.5     54.1643                2.781219
6061  1818       54.0877                2.78341
6076  1822.5     54.0096                2.784544
6091  1827       53.9237                2.786324
6106  1831.5     53.8516                2.784036
6121  1836       53.7669                2.783333
6136  1840.5     53.6942                2.782402
6151  1845       53.6162                2.783356
6166  1849.5     53.5341                2.783133
6181  1854       53.4594                2.785837
6196  1858.5     53.38099                 2.784714
6211  1863       53.306                2.784783
6226  1867.5     53.2312                2.786543
6241  1872       53.14582                 2.787331
6256  1876.5     53.0672                2.786618
6271  1881       52.9852                2.788347
6286  1885.5     52.9102                2.788806
6301  1890       52.8433                2.787636
6316  1894.5     52.761                2.78844
6331  1899       52.6785                2.78764
6346  1903.5     52.6054                2.787774
6361  1908       52.5277                2.788184
6376  1912.5     52.4508                2.787188
6391  1917       52.3742                  2.786697
6406  1921.5     52.289                2.786315
6421  1926       52.2144                2.786814
6436  1930.5     52.1321                2.786955
6451  1935       52.0585                2.787049
6466  1939.5     51.9789                2.786942
6481  1944       51.8948                2.786977
6496  1948.5     51.82406                 2.783426
6511  1953       51.7447                2.784597
6526  1957.5     51.671                2.786722
6541  1962       51.5998                2.785208
6556  1966.5     51.515                2.784973
6571  1971       51.4323                2.784386
6586  1975.5     51.3492                2.784373
6601  1980       51.2755                2.786028
6616  1984.5     51.2098                2.784857
6631  1989       51.1253                2.78384
6646  1993.5     51.0433                2.784177
6661  1998       50.9696                2.782888
6676  2002.5     50.8943                2.7816
6691  2007       50.8174                2.781559
6706  2011.5     50.7366                2.782307
6721  2016       50.6536                2.783762
6736  2020.5     50.5778                2.783049
6751  2025       50.4992                2.782456
6766  2029.5     50.4234                2.782259
6781  2034       50.3416                2.783181
6796  2038.5     50.2592                2.784815
6811  2043       50.1901                2.78509
6826  2047.5     50.1099                2.785833
6841  2052       50.0372                2.786498
6856  2056.5     49.9579                2.787534
6871  2061       49.8736                2.786674
6886  2065.5     49.797                2.786506
6901  2070       49.7134                2.786536
6916  2074.5     49.642                2.789268
6931  2079       49.5746                2.789401
6946  2083.5     49.4914                2.789328
6961  2088       49.4092                2.789273
6976  2092.5     49.3348                2.787866
6991  2097       49.2568                2.789062
7006  2101.5     49.1839                2.789307
7021  2106       49.0968                2.789404
7036  2110.5     49.0139                2.788816
7051  2115       48.9372                2.7883
7066  2119.5     48.8641                2.787424
7081  2124       48.7906                2.787221
7096  2128.5     48.7085                2.786837
7111  2133       48.626                2.786311
7126  2137.5     48.5564                2.78567
7141  2142       48.47407                 2.786778
7156  2146.5     48.4004                2.787157
7171  2151       48.3278                2.7879
7186  2155.5     48.2438                2.789743
7201  2160       48.167                2.788463
7216  2164.5     48.0808                2.790708
7231  2169       48.0061                2.790719
7246  2173.5     47.94029                 2.791621
7261  2178       47.8591                2.789132
7276  2182.5     47.7738                2.789097
7291  2187       47.69805                 2.789565
7306  2191.5     47.6223                  2.79051
7321  2196       47.5501                2.790648
7336  2200.5     47.4631                2.79062
7351  2205       47.3821                2.791765
7366  2209.5     47.3043                2.791654
7381  2214       47.23                2.79119
7396  2218.5     47.15515                 2.790437
7411  2223       47.0712                2.791212
7426  2227.5     46.9905                2.791791
7441  2232       46.9213                2.794053
7456  2236.5     46.84169                 2.791524
7471  2241       46.76665                 2.792319
7486  2245.5     46.68515                 2.794339
7501  2250       46.6004                2.795181
7516  2254.5     46.5281                2.795901
7531  2259       46.444                2.796859
7546  2263.5     46.3718                2.795201
7561  2268       46.3019                2.796192
7576  2272.5     46.2197                2.79619
7591  2277       46.1399                2.796533
7606  2281.5     46.0609                2.795518
7621  2286       45.9836                2.796603
7636  2290.5     45.9155                2.796249
7651  2295       45.8308                2.797318
7666  2299.5     45.7487                2.797376
7681  2304       45.6658                2.796693
7696  2308.5     45.5934                2.796562
7711  2313       45.5238                2.797308
7726  2317.5     45.4343                2.794875
7741  2322       45.3553                2.795331
7756  2326.5     45.2848                2.796589
7771  2331       45.20891                 2.797334
7786  2335.5     45.1319                2.797916
7801  2340       45.0524                2.798515
7816  2344.5     44.96793                 2.798866
7831  2349       44.89575                 2.799342
7846  2353.5     44.8101                2.798717
7861  2358       44.7384                2.799361
7876  2362.5     44.6651                2.798174
7891  2367       44.583                2.797568
7906  2371.5     44.506                2.797734
7921  2376       44.4249                2.796344
7936  2380.5     44.3507                2.796562
7951  2385       44.2784                2.798136
7966  2389.5     44.1948                2.796087
7981  2394       44.1122                2.797739
7996  2398.5     44.0313                2.793443
8011  2403       43.9564                2.793994
8026  2407.5     43.8867                2.795326
8041  2412       43.8005                2.795529
8056  2416.5     43.7213                2.795365
8071  2421       43.6484                2.795129
8086  2425.5     43.5713                2.796635
8101  2430       43.4967                2.795443
8116  2434.5     43.4123                2.797039
8131  2439       43.3304                2.797084
8146  2443.5     43.2525                2.797232
8161  2448       43.1769                2.79999
8176  2452.5     43.103                2.799355
8191  2457       43.0269                2.799484
8206  2461.5     42.94305                 2.801699
8221  2466       42.8714                2.799874
8236  2470.5     42.7884                2.799714
8251  2475       42.7161                2.799304
8266  2479.5     42.6365                2.798886
8281  2484       42.5532                2.798902
8296  2488.5     42.4762                2.799089
8311  2493       42.3934                2.798493
8326  2497.5     42.3215                2.798837
8341  2502       42.2501                2.798589
8356  2506.5     42.1662                2.798766
8371  2511       42.0839                2.798832
8386  2515.5     42.0097                2.798561
8401  2520       41.9353                2.801237
8416  2524.5     41.8638                2.80009
8431  2529       41.7783                2.79903
8446  2533.5     41.6973                2.798974
8461  2538       41.6168                2.798275
8476  2542.5     41.5423                  2.800699
8491  2547       41.467                2.800466
8506  2551.5     41.3915                2.801498
8521  2556       41.3071                2.802507
8536  2560.5     41.2368                2.798886
8551  2565       41.1563                2.799809
8566  2569.5     41.081                2.800176
8581  2574       41.0058                2.801371
8596  2578.5     40.92                2.801884
8611  2583       40.84504                 2.801501
8626  2587.5     40.75801                 2.802784
8641  2592       40.6874                2.801597
8656  2596.5     40.6103                2.800124
8671  2601       40.5288                2.801754
8686  2605.5     40.4501                2.801152
8701  2610       40.3743                2.802288
8716  2614.5     40.2973                2.80121
8731  2619       40.2259                2.802607
8746  2623.5     40.1424                2.804876
8761  2628       40.0596                2.803908
8776  2632.5     39.97702                 2.804483
8791  2637       39.9046                2.80493
8806  2641.5     39.8334                2.804822
8821  2646       39.7536                2.803399
8836  2650.5     39.6705                2.804368
8851  2655       39.5996                2.804582
8866  2659.5     39.5218                  2.803127
8881  2664       39.4445                2.804916
8896  2668.5     39.3668                2.805849
8911  2673       39.2819                2.803616
8926  2677.5     39.2089                2.802506
8941  2682       39.1252                2.803314
8956  2686.5     39.0536                2.803706
8971  2691       38.9726                2.803055
8986  2695.5     38.887                2.802977
9001  2700       38.8155                2.80118
9016  2704.5     38.7362                2.802361
9031  2709       38.6647                2.802144
9046  2713.5     38.5943                2.800959
9061  2718       38.509                2.801964
9076  2722.5     38.4265                2.801108
9091  2727       38.3436                2.801913
9106  2731.5     38.2687                2.802196
9121  2736       38.2005                2.801841
9136  2740.5     38.1182                2.800842
9151  2745       38.0389                2.800735
9166  2749.5     37.9623                2.799074
9181  2754       37.8885                2.799384
9196  2758.5     37.8118                2.798872
9211  2763       37.7261                2.798536
9226  2767.5     37.6441                2.798985
9241  2772       37.56777                 2.798159
9256  2776.5     37.4924                2.797053
9271  2781       37.4171                2.798394
9286  2785.5     37.335                2.799442
9301  2790       37.2519                2.798227
9316  2794.5     37.1835                2.800546
9331  2799       37.1018                2.799596
9346  2803.5     37.0285                2.800004
9361  2808       36.9485                2.800686
9376  2812.5     36.8637                2.799794
9391  2817       36.7915                2.799837
9406  2821.5     36.7063                2.801027
9421  2826       36.6337                2.799864
9436  2830.5     36.5653                2.802107
9451  2835       36.4818                2.800564
9466  2839.5     36.4005                2.800478
9481  2844       36.3246                2.800893
9496  2848.5     36.249                2.799932
9511  2853       36.1764                2.801636
9526  2857.5     36.0903                2.800914
9541  2862       36.0096                2.801803
9556  2866.5     35.9319                2.798103
9571  2871       35.8557                2.799771
9586  2875.5     35.7828                2.800215
9601  2880       35.6975                2.799362
9616  2884.5     35.6167                2.798866
9631  2889       35.5465                2.797754
9646  2893.5     35.46984                 2.798855
9661  2898       35.3941                2.797066
9676  2902.5     35.31775                 2.798505
9691  2907       35.2317                2.798944
9706  2911.5     35.1584                2.800718
9721  2916       35.07369                 2.801705
9736  2920.5     35.0009                2.802453
9751  2925       34.9272                2.80091
9766  2929.5     34.8471                  2.800845
9781  2934       34.769                2.800294
9796  2938.5     34.6889                2.800306
9811  2943       34.613                2.799957
9826  2947.5     34.5407                2.802052
9841  2952       34.4562                2.801366
9856  2956.5     34.3751                2.803541
9871  2961       34.2943                2.803141
9886  2965.5     34.2194                2.801088
9901  2970       34.148                2.802415
9916  2974.5     34.0632                2.802964
9931  2979       33.9836                2.801687
9946  2983.5     33.9107                2.803316
9961  2988       33.8352                2.804741
9976  2992.5     33.7594                2.805119
9991  2997       33.6765                2.805546
10006 3001.5     33.593                2.807466
10021 3006       33.5159                2.805992
10036 3010.5     33.4409                2.805404
10051 3015       33.3647                2.806997
10066 3019.5     33.2894                2.806686
10081 3024       33.2076                2.805359
10096 3028.5     33.1365                2.805919
10111 3033       33.0526                2.804453
10126 3037.5     32.9795                2.804792
10141 3042       32.906                2.806025
10156 3046.5     32.8231                2.8053
10171 3051       32.7426                2.804728
10186 3055.5     32.6571                2.804795
10201 3060       32.586                2.804585
10216 3064.5     32.5125                2.804203
10231 3069       32.4281                2.804646
10246 3073.5     32.3491                2.803141
10261 3078       32.2747                2.802361
10276 3082.5     32.1997                2.802239
10291 3087       32.1277                2.804993
10306 3091.5     32.0441                2.804744
10321 3096       31.9624                2.805166
10336 3100.5     31.88163                 2.806367
10351 3105       31.8066                2.803064
10366 3109.5     31.7328                2.80335
10381 3114       31.6559                2.804215
10396 3118.5     31.57165                 2.803091
10411 3123       31.5011                2.803541
10426 3127.5     31.4206                2.802226
10441 3132       31.3468                2.802942
10456 3136.5     31.2655                2.802968
10471 3141       31.1787                2.800841
10486 3145.5     31.1055                2.800351
10501 3150       31.0222                2.801177
10516 3154.5     30.95083                 2.802013
10531 3159       30.8736                2.802116
10546 3163.5     30.7915                2.801949
10561 3168       30.7165                2.802902
10576 3172.5     30.63855                 2.803507
10591 3177       30.5644                2.802724
10606 3181.5     30.49                2.803091
10621 3186       30.4046                2.803509
10636 3190.5     30.3251                2.804396
10651 3195       30.2446                2.804446
10666 3199.5     30.1691                  2.805564
10681 3204       30.1                2.805532
10696 3208.5     30.0181                2.805756
10711 3213       29.9371                2.805368
10726 3217.5     29.86112                 2.806441
10741 3222       29.78668                 2.806483
10756 3226.5     29.7113                2.806341
10771 3231       29.6284                2.806412
10786 3235.5     29.5441                2.8075
10801 3240       29.4676                2.807916
10816 3244.5     29.392                2.807089
10831 3249       29.3172                2.807976
10846 3253.5     29.2374                2.807941
10861 3258       29.1527                2.806379
10876 3262.5     29.0841                2.806488
10891 3267       29.0027                2.807086
10906 3271.5     28.9303                2.805842
10921 3276       28.8569                2.805741
10936 3280.5     28.77345                 2.807051
10951 3285       28.6962                2.806673
10966 3289.5     28.6094                2.807688
10981 3294       28.5365                2.80827
10996 3298.5     28.467                2.807917
11011 3303       28.38415                 2.808877
11026 3307.5     28.3028                2.807213
11041 3312       28.2273                2.808857
11056 3316.5     28.1523                2.808168
11071 3321       28.0814                2.807764
11086 3325.5     27.9971                2.80902
11101 3330       27.9143                2.809477
11116 3334.5     27.8347                2.810673
11131 3339       27.7607                2.809708
11146 3343.5     27.68558                 2.809531
11161 3348       27.6                2.81026
11176 3352.5     27.5208                2.810743
11191 3357       27.4509                2.808101
11206 3361.5     27.3725                2.808779
11221 3366       27.2967                2.809741
11236 3370.5     27.2134                2.810956
11251 3375       27.1312                2.812164
11266 3379.5     27.0576                2.812227
11281 3384       26.9751                2.812257
11296 3388.5     26.9029                2.813377
11311 3393       26.83001                 2.812276
11326 3397.5     26.7479                2.812809
11341 3402       26.6705                2.813725
11356 3406.5     26.591                2.814196
11371 3411       26.5161                2.81313
11386 3415.5     26.4456                2.813443
11401 3420       26.3634                2.813652
11416 3424.5     26.2806                2.812773
11431 3429       26.1988                2.811494
11446 3433.5     26.1228                2.810973
11461 3438       26.0521                2.811113
11476 3442.5     25.9669                2.809937
11491 3447       25.8861                2.808751
11506 3451.5     25.8139                2.809485
11521 3456       25.7393                2.809716
11536 3460.5     25.6637                2.809657
11551 3465       25.58412                 2.809609
11566 3469.5     25.5003                2.810306
11581 3474       25.4224                2.809577
11596 3478.5     25.3446                2.811126
11611 3483       25.26985                 2.810115
11626 3487.5     25.1922                2.810491
11641 3492       25.1101                2.809791
11656 3496.5     25.0404                2.80849
11671 3501       24.9579                2.80765
11686 3505.5     24.8842                2.807726
11701 3510       24.8059                2.807651
11716 3514.5     24.7248                2.80736
11731 3519       24.6489                2.80796
11746 3523.5     24.5611                2.80839
11761 3528       24.4904                2.807294
11776 3532.5     24.4135                2.807401
11791 3537       24.3312                2.808026
11806 3541.5     24.2536                2.807909
11821 3546       24.1772                2.808304
11836 3550.5     24.1023                2.808124
11851 3555       24.0285                2.808054
11866 3559.5     23.945                2.808599
11881 3564       23.8645                2.809489
11896 3568.5     23.7838                2.809876
11911 3573       23.7104                2.808371
11926 3577.5     23.6382                2.809938
11941 3582       23.5573                2.810596
11956 3586.5     23.4757                2.809772
11971 3591       23.4046                2.809738
11986 3595.5     23.3261                2.809891
12001 3600       23.24982                 2.810708
12016 3604.5     23.16754                 2.809135
12031 3609       23.0845                2.809057
12046 3613.5     23.0127                2.810683
12061 3618       22.9305                2.809007
12076 3622.5     22.8572                2.809666
12091 3627       22.77801                 2.807938
12106 3631.5     22.6939                2.808042
12121 3636       22.62251                 2.807961
12136 3640.5     22.5405                2.808595
12151 3645       22.4694                2.807126
12166 3649.5     22.3981                2.807301
12181 3654       22.3168                2.807802
12196 3658.5     22.2351                2.808205
12211 3663       22.1513                2.810845
12226 3667.5     22.07547                 2.810073
12241 3672       22.0076                2.8105
12256 3676.5     21.9263                2.810253
12271 3681       21.8465                  2.810131
12286 3685.5     21.7711                2.809923
12301 3690       21.6936                2.810562
12316 3694.5     21.621                2.810487
12331 3699       21.5346                2.810767
12346 3703.5     21.4531                2.811277
12361 3708       21.3747                2.811289
12376 3712.5     21.3005                2.811584
12391 3717       21.2251                2.812949
12406 3721.5     21.1422                2.812926
12421 3726       21.0601                2.812458
12436 3730.5     20.9913                2.812072
12451 3735       20.9124                2.812354
12466 3739.5     20.83799                 2.813725
12481 3744       20.7567                2.812828
12496 3748.5     20.6734                2.814596
12511 3753       20.6019                2.81431
12526 3757.5     20.5183                2.814782
12541 3762       20.4436                2.815218
12556 3766.5     20.3706                2.817507
12571 3771       20.2901                2.816236
12586 3775.5     20.2121                2.814974
12601 3780       20.1342                2.813472
12616 3784.5     20.0579                2.815011
12631 3789       19.9884                2.816221
12646 3793.5     19.9056                2.815682
12661 3798       19.8256                2.818051
12676 3802.5     19.7416                2.818366
12691 3807       19.6689                2.817325
12706 3811.5     19.5961                2.817895
12721 3816       19.5084                2.816972
12736 3820.5     19.4294                2.816862
12751 3825       19.35714                 2.816201
12766 3829.5     19.2821                2.816921
12781 3834       19.2068                2.816223
12796 3838.5     19.1292                2.816497
12811 3843       19.0445                2.816006
12826 3847.5     18.9709                2.815375
12841 3852       18.8906                2.815917
12856 3856.5     18.8153                2.815916
12871 3861       18.7402                2.816371
12886 3865.5     18.6563                2.815823
12901 3870       18.5862                2.815299
12916 3874.5     18.5021                2.814892
12931 3879       18.4294                2.813943
12946 3883.5     18.3554                2.813727
12961 3888       18.2725                2.814954
12976 3892.5     18.1948                2.814391
12991 3897       18.1089                2.814073
13006 3901.5     18.0341                2.813792
13021 3906       17.9622                2.815282
13036 3910.5     17.8792                2.813858
13051 3915       17.7997                2.813758
13066 3919.5     17.7251                2.812408
13081 3924       17.6502                2.813027
13096 3928.5     17.5784                2.813608
13111 3933       17.4895                2.814022
13126 3937.5     17.4114                2.815151
13141 3942       17.3334                2.815179
13156 3946.5     17.2581                2.815509
13171 3951       17.1836                2.81547
13186 3955.5     17.1038                2.816195
13201 3960       17.0234                2.815779
13216 3964.5     16.95407                 2.81613
13231 3969       16.87533                 2.816538
13246 3973.5     16.8005                2.816906
13261 3978       16.7164                2.816869
13276 3982.5     16.6337                2.816682
13291 3987       16.5612                2.81778
13306 3991.5     16.47754                 2.81666
13321 3996       16.4045                2.817854
13336 4000.5     16.3264                2.816768
13351 4005       16.2425                2.814942
13366 4009.5     16.1707                2.816131
13381 4014       16.0901                2.815511
13396 4018.5     16.0201                2.816568
13411 4023       15.9484                2.816612
13426 4027.5     15.8677                2.816318
13441 4032       15.7854                2.815554
13456 4036.5     15.7021                2.81593
13471 4041       15.6257                2.815861
13486 4045.5     15.5593                2.815973
13501 4050       15.475                2.816142
13516 4054.5     15.3961                2.815123
13531 4059       15.3207                2.815015
13546 4063.5     15.2475                2.815252
13561 4068       15.173                2.814847
13576 4072.5     15.0921                2.813908
13591 4077       15.0099                2.813974
13606 4081.5     14.9339                2.815681
13621 4086       14.8567                2.815092
13636 4090.5     14.7793                2.815641
13651 4095       14.6964                2.815395
13666 4099.5     14.6142                2.815357
13681 4104       14.5471                2.815449
13696 4108.5     14.4653                2.815669
13711 4113       14.3944                2.815267
13726 4117.5     14.3131                2.816542
13741 4122       14.2324                2.816077
13756 4126.5     14.1575                2.817177
13771 4131       14.07181                 2.816076
13786 4135.5     13.9993                2.817163
13801 4140       13.9296                2.817286
13816 4144.5     13.8485                2.816318
13831 4149       13.768                2.816619
13846 4153.5     13.6912                2.816147
13861 4158       13.6143                2.816311
13876 4162.5     13.5465                2.815412
13891 4167       13.462                2.81529
13906 4171.5     13.384                2.814491
13921 4176       13.3038                2.814423
13936 4180.5     13.2287                2.814045
13951 4185       13.1566                2.814335
13966 4189.5     13.0686                2.813307
13981 4194       12.991                2.81235
13996 4198.5     12.9191                2.811464
14011 4203       12.8419                2.811644
14026 4207.5     12.7662                2.810688
14041 4212       12.6886                2.809462
14056 4216.5     12.6061                2.810529
14071 4221       12.53387                 2.809436
14086 4225.5     12.4494                2.808014
14101 4230       12.3775                2.807681
14116 4234.5     12.3046                2.807468
14131 4239       12.2237                2.807374
14146 4243.5     12.1487                2.806738
14161 4248       12.0697                2.806094
14176 4252.5     11.9945                2.805957
14191 4257       11.9222                2.804334
14206 4261.5     11.8412                2.804595
14221 4266       11.7599                2.803191
14236 4270.5     11.6765                2.802401
14251 4275       11.60129                 2.801924
14266 4279.5     11.53136                 2.802172
14281 4284       11.4462                2.801359
14296 4288.5     11.3687                2.801263
14311 4293       11.2944                2.800837
14326 4297.5     11.2201                2.800404
14341 4302       11.1453                2.798876
14356 4306.5     11.0624                2.798361
14371 4311       10.9816                2.798642
14386 4315.5     10.90599                 2.798794
14401 4320       10.8291                2.797161
14416 4324.5     10.7548                2.797066
14431 4329       10.6766                2.796808
14446 4333.5     10.5959                2.795435
14461 4338       10.5289                2.794593
14476 4342.5     10.4462                2.793293
14491 4347       10.3741                2.791427
14506 4351.5     10.2978                2.790577
14521 4356       10.2176                2.789566
14536 4360.5     10.14173                 2.788646
14551 4365       10.0582                2.785878
14566 4369.5     9.984808                 2.784752
14581 4374       9.912871                 2.78417
14596 4378.5     9.830844                 2.781996
14611 4383       9.749381                 2.780843
14626 4387.5     9.677048                 2.780206
14641 4392       9.60324                  2.777129
14656 4396.5     9.531874                 2.775692
14671 4401       9.452434                 2.774637
14686 4405.5     9.373818                 2.772934
14701 4410       9.298022                 2.77091
14716 4414.5     9.221477                 2.769987
14731 4419       9.146062                 2.76683
14746 4423.5     9.07244                  2.764012
14761 4428       8.990574                 2.762015
14776 4432.5     8.921067                 2.759698
14791 4437       8.840588                 2.757262
14806 4441.5     8.768026                 2.754514
14821 4446       8.692718                 2.75221
14836 4450.5     8.614762                 2.748465
14851 4455       8.538366                 2.745537
14866 4459.5     8.455952                 2.742501
14881 4464       8.384093                 2.738446
14896 4468.5     8.316054                 2.734854
14911 4473       8.232906                 2.730744
14926 4477.5     8.15668                  2.726724
14941 4482       8.084788                 2.721015
14956 4486.5     8.012872                 2.715359
14971 4491       7.938565                 2.708434
14986 4495.5     7.859498                 2.702874
15001 4500       7.781911                 2.697084