File: rawdata/SM_EC-EC_h3.txt
 SM_EC_EC
Creation Date : 12/21/2018 12:44:06 PM
User : PSCM

HeatFlow :
 Initial Mass : 0 mg
 Molar Mass : N/A

Index Time (s)   Furnace Temperature (Â°C) HeatFlow (mW)
1     0          4.471363                 0.26142
17    4.8        4.271775                 0.224665
33    9.6        4.135999                 0.190662
49    14.4       3.837731                 0.162332
65    19.2       3.559921                 0.139382
81    24         3.345471                 0.120259
97    28.8       3.250735                 0.102514
113   33.6       3.177743                 0.083824
129   38.4       3.18323                  0.061518
145   43.2       3.146052                 0.034184
161   48         3.143641                 0.001528
177   52.8       3.176854                 -0.037093
193   57.6       3.190715                 -0.081628
209   62.4       3.227907                 -0.131739
225   67.2       3.261505                 -0.18691
241   72         3.320175                 -0.246827
257   76.8       3.374925                 -0.311676
273   81.6       3.435265                 -0.379419
289   86.4       3.490378                 -0.450411
305   91.2       3.551594                 -0.523175
321   96         3.621194                 -0.598188
337   100.8      3.682767                 -0.67498
353   105.6      3.751664                 -0.752143
369   110.4      3.821605                 -0.83011
385   115.2      3.898411                 -0.908871
401   120        3.973305                 -0.987968
417   124.8      4.050358                 -1.065873
433   129.6      4.124664                 -1.143253
449   134.4      4.201716                 -1.218868
465   139.2      4.281075                 -1.294923
481   144        4.359745                 -1.368295
497   148.8      4.440182                 -1.440563
513   153.6      4.520865                 -1.5104
529   158.4      4.602402                 -1.579313
545   163.2      4.6842                   -1.646335
561   168        4.731866                 -1.710731
577   172.8      4.744595                 -1.772947
593   177.6      4.77652                  -1.832064
609   182.4      4.841613                 -1.889427
625   187.2      4.924268                 -1.944881
641   192        4.996363                 -1.998324
657   196.8      5.074493                 -2.049054
673   201.6      5.154849                 -2.099149
689   206.4      5.239811                 -2.147404
705   211.2      5.331022                 -2.192773
721   216        5.410677                 -2.23506
737   220.8      5.49643                  -2.2751
753   225.6      5.58367                  -2.314937
769   230.4      5.673461                 -2.351579
785   235.2      5.76505                  -2.386633
801   240        5.845816                 -2.420127
817   244.8      5.936928                 -2.451033
833   249.6      6.025837                 -2.481889
849   254.4      6.123138                 -2.51025
865   259.2      6.203011                 -2.536317
881   264        6.295171                 -2.560824
897   268.8      6.386653                 -2.583559
913   273.6      6.480768                 -2.604971
929   278.4      6.571045                 -2.625114
945   283.2      6.653438                 -2.644408
961   288        6.746749                 -2.663248
977   292.8      6.83915                  -2.679709
993   297.6      6.937966                 -2.696374
1009  302.4      7.024237                 -2.710023
1025  307.2      7.115823                 -2.723475
1041  312        7.20088                  -2.735862
1057  316.8      7.297296                 -2.748593
1073  321.6      7.381365                 -2.759469
1089  326.4      7.46543                  -2.770581
1105  331.2      7.556995                 -2.780247
1121  336        7.649162                 -2.788934
1137  340.8      7.744322                 -2.797745
1153  345.6      7.828172                 -2.804591
1169  350.4      7.917684                 -2.811648
1185  355.2      8.004625                 -2.816201
1201  360        8.10251                  -2.821152
1217  364.8      8.189265                 -2.825661
1233  369.6      8.272736                 -2.829909
1249  374.4      8.358037                 -2.834136
1265  379.2      8.45023                  -2.837032
1281  384        8.546562                 -2.83983
1297  388.8      8.630857                 -2.844376
1313  393.6      8.717025                 -2.846082
1329  398.4      8.802944                 -2.847318
1345  403.2      8.895548                 -2.849633
1361  408        8.983093                 -2.850259
1377  412.8      9.061152                 -2.852164
1393  417.6      9.153136                 -2.852819
1409  422.4      9.239082                 -2.853091
1425  427.2      9.330002                 -2.854023
1441  432        9.409901                 -2.854434
1457  436.8      9.497433                 -2.854608
1473  441.6      9.587503                 -2.85327
1489  446.4      9.676379                 -2.851901
1505  451.2      9.762055                 -2.851432
1521  456        9.845272                 -2.849887
1537  460.8      9.930966                 -2.848533
1553  465.6      10.0102                -2.848343
1569  470.4      10.1054                -2.847292
1585  475.2      10.194                -2.848315
1601  480        10.27365                 -2.847497
1617  484.8      10.3646                -2.844872
1633  489.6      10.4511                -2.843724
1649  494.4      10.5417                -2.841906
1665  499.2      10.6198                -2.841603
1681  504        10.7004                -2.84168
1697  508.8      10.7847                -2.841336
1713  513.6      10.8729                -2.84025
1729  518.4      10.96274                 -2.840142
1745  523.2      11.0434                -2.839465
1761  528        11.1275                -2.837577
1777  532.8      11.2117                -2.836206
1793  537.6      11.302                -2.834509
1809  542.4      11.3896                -2.833167
1825  547.2      11.4664                -2.832201
1841  552        11.5539                -2.831584
1857  556.8      11.6314                -2.830113
1873  561.6      11.7231                -2.829774
1889  566.4      11.8106                -2.829521
1905  571.2      11.8905                -2.82963
1921  576        11.9772                -2.827711
1937  580.8      12.0631                -2.827242
1953  585.6      12.1524                -2.82547
1969  590.4      12.2288                -2.825147
1985  595.2      12.3085                -2.824852
2001  600        12.39231                 -2.823467
2017  604.8      12.4785                -2.823169
2033  609.6      12.56783                 -2.823464
2049  614.4      12.6455                -2.821517
2065  619.2      12.73                -2.821005
2081  624        12.8158                -2.818562
2097  628.8      12.903                -2.816033
2113  633.6      12.9851                -2.816115
2129  638.4      13.0644                -2.814881
2145  643.2      13.1494                -2.813487
2161  648        13.228                -2.812996
2177  652.8      13.32                -2.812645
2193  657.6      13.4069                -2.812799
2209  662.4      13.4839                -2.81294
2225  667.2      13.575                -2.813165
2241  672        13.6568                -2.812351
2257  676.8      13.7437                -2.810899
2273  681.6      13.8202                -2.811385
2289  686.4      13.898                -2.811168
2305  691.2      13.9842                -2.811263
2321  696        14.06969                 -2.811599
2337  700.8      14.162                -2.812081
2353  705.6      14.2355                -2.812058
2369  710.4      14.3168                -2.813054
2385  715.2      14.4065                -2.812045
2401  720        14.4917                -2.811684
2417  724.8      14.5826                -2.810765
2433  729.6      14.6589                -2.810229
2449  734.4      14.739                -2.80963
2465  739.2      14.8197                -2.808843
2481  744        14.9058                -2.808582
2497  748.8      14.9961                -2.808203
2513  753.6      15.0771                -2.808566
2529  758.4      15.161                -2.807586
2545  763.2      15.2394                -2.808136
2561  768        15.3281                -2.807265
2577  772.8      15.40869                 -2.806478
2593  777.6      15.4874                -2.806138
2609  782.4      15.5737                -2.807502
2625  787.2      15.6508                -2.806174
2641  792        15.7452                -2.805321
2657  796.8      15.8242                -2.805753
2673  801.6      15.9006                -2.804162
2689  806.4      15.9934                -2.805956
2705  811.2      16.07783                 -2.804019
2721  816        16.1654                -2.803056
2737  820.8      16.2393                -2.802405
2753  825.6      16.319                -2.80267
2769  830.4      16.4045                -2.801996
2785  835.2      16.4904                -2.801879
2801  840        16.5831                -2.803072
2817  844.8      16.6603                -2.802578
2833  849.6      16.7392                -2.803366
2849  854.4      16.8262                -2.803497
2865  859.2      16.9108                -2.804252
2881  864        17.0016                -2.804125
2897  868.8      17.079                -2.802955
2913  873.6      17.157                -2.804801
2929  878.4      17.237                -2.805001
2945  883.2      17.323                -2.805899
2961  888        17.4109                -2.806601
2977  892.8      17.4907                -2.806944
2993  897.6      17.5721                -2.806981
3009  902.4      17.6548                -2.806711
3025  907.2      17.7444                -2.805579
3041  912        17.83097                 -2.805094
3057  916.8      17.9075                -2.805688
3073  921.6      17.9913                -2.805691
3089  926.4      18.0659                -2.805946
3105  931.2      18.1601                -2.806812
3121  936        18.2462                -2.807327
3137  940.8      18.3215                -2.808303
3153  945.6      18.412                -2.808867
3169  950.4      18.4939                  -2.809267
3185  955.2      18.5811                -2.808509
3201  960        18.655                -2.808103
3217  964.8      18.7335                -2.809018
3233  969.6      18.819                -2.809261
3249  974.4      18.9064                -2.808464
3265  979.2      18.9977                -2.807761
3281  984        19.0712                -2.80885
3297  988.8      19.1498                -2.808809
3313  993.6      19.24049                 -2.809039
3329  998.4      19.3264                -2.80839
3345  1003.2     19.4143                -2.8074
3361  1008       19.4854                -2.807659
3377  1012.8     19.5689                -2.806238
3393  1017.6     19.6514                -2.806681
3409  1022.4     19.7383                -2.805868
3425  1027.2     19.8301                -2.805525
3441  1032       19.9089                -2.805936
3457  1036.8     19.988                -2.805643
3473  1041.6     20.071                -2.805096
3489  1046.4     20.1581                -2.805683
3505  1051.2     20.24                -2.804872
3521  1056       20.3193                -2.805635
3537  1060.8     20.4044                -2.805719
3553  1065.6     20.4809                -2.805558
3569  1070.4     20.5724                -2.805819
3585  1075.2     20.6556                -2.80658
3601  1080       20.7358                -2.808765
3617  1084.8     20.8227                -2.807877
3633  1089.6     20.9042                -2.80871
3649  1094.4     20.9927                -2.807179
3665  1099.2     21.07416                 -2.805613
3681  1104       21.1478                -2.806239
3697  1108.8     21.23694                 -2.804699
3713  1113.6     21.3184                -2.805786
3729  1118.4     21.4091                -2.804742
3745  1123.2     21.49                -2.805857
3761  1128       21.5679                -2.806253
3777  1132.8     21.6553                -2.806598
3793  1137.6     21.74                -2.806195
3809  1142.4     21.8289                -2.806176
3825  1147.2     21.9038                -2.804865
3841  1152       21.9838                -2.805233
3857  1156.8     22.0657                -2.805282
3873  1161.6     22.1515                -2.805569
3889  1166.4     22.2418                -2.805994
3905  1171.2     22.3162                -2.806806
3921  1176       22.4008                -2.805161
3937  1180.8     22.4854                -2.80427
3953  1185.6     22.5733                -2.803147
3969  1190.4     22.6554                -2.804123
3985  1195.2     22.732                -2.802201
4001  1200       22.8148                -2.801047
4017  1204.8     22.8962                -2.801228
4033  1209.6     22.9848                -2.799812
4049  1214.4     23.0753                -2.800094
4065  1219.2     23.1515                -2.800739
4081  1224       23.2364                -2.801036
4097  1228.8     23.3145                -2.801545
4113  1233.6     23.405                -2.799996
4129  1238.4     23.4894                -2.800707
4145  1243.2     23.565                -2.800911
4161  1248       23.6507                -2.801561
4177  1252.8     23.7269                -2.802807
4193  1257.6     23.8208                -2.802294
4209  1262.4     23.9003                -2.804375
4225  1267.2     23.9767                -2.8051
4241  1272       24.069                -2.803971
4257  1276.8     24.1537                -2.803415
4273  1281.6     24.2424                -2.801822
4289  1286.4     24.3159                -2.802533
4305  1291.2     24.3943                -2.80364
4321  1296       24.4774                -2.80364
4337  1300.8     24.5652                -2.803231
4353  1305.6     24.6571                -2.803224
4369  1310.4     24.7357                -2.80427
4385  1315.2     24.8142                -2.806215
4401  1320       24.8999                -2.806772
4417  1324.8     24.9829                -2.80636
4433  1329.6     25.0744                -2.807764
4449  1334.4     25.1496                -2.807934
4465  1339.2     25.2292                -2.808315
4481  1344       25.309                -2.807701
4497  1348.8     25.396                -2.807919
4513  1353.6     25.483                -2.80724
4529  1358.4     25.5623                  -2.808525
4545  1363.2     25.6453                -2.80878
4561  1368       25.7296                -2.807941
4577  1372.8     25.8178                -2.805014
4593  1377.6     25.8964                -2.805601
4609  1382.4     25.9763                -2.805826
4625  1387.2     26.0626                -2.804376
4641  1392       26.14006                 -2.805837
4657  1396.8     26.2315                -2.804904
4673  1401.6     26.3192                -2.805425
4689  1406.4     26.3936                -2.806102
4705  1411.2     26.4822                -2.806194
4721  1416       26.5612                -2.805698
4737  1420.8     26.65147                 -2.805703
4753  1425.6     26.7266                -2.805785
4769  1430.4     26.8041                -2.806577
4785  1435.2     26.8934                -2.807275
4801  1440       26.976                -2.809253
4817  1444.8     27.067                -2.808399
4833  1449.6     27.1435                -2.810698
4849  1454.4     27.2224                -2.80921
4865  1459.2     27.3105                -2.810997
4881  1464       27.3981                -2.809191
4897  1468.8     27.4879                -2.809197
4913  1473.6     27.5614                -2.809373
4929  1478.4     27.6407                -2.808467
4945  1483.2     27.7216                -2.807894
4961  1488       27.809                -2.806256
4977  1492.8     27.9021                -2.806001
4993  1497.6     27.9807                -2.80777
5009  1502.4     28.0573                -2.806659
5025  1507.2     28.1427                -2.806213
5041  1512       28.2292                -2.807311
5057  1516.8     28.3137                -2.806153
5073  1521.6     28.3909                -2.806674
5089  1526.4     28.4709                -2.805862
5105  1531.2     28.5533                -2.806157
5121  1536       28.6443                -2.805788
5137  1540.8     28.7258                -2.806533
5153  1545.6     28.8065                -2.806444
5169  1550.4     28.8916                -2.805375
5185  1555.2     28.9729                -2.8055
5201  1560       29.0626                -2.804021
5217  1564.8     29.1432                -2.802838
5233  1569.6     29.2185                -2.801319
5249  1574.4     29.306                -2.802574
5265  1579.2     29.3834                -2.800144
5281  1584       29.4789                -2.800449
5297  1588.8     29.5625                -2.80046
5313  1593.6     29.6352                -2.800537
5329  1598.4     29.7262                -2.800782
5345  1603.2     29.8084                -2.800262
5361  1608       29.8968                -2.799457
5377  1612.8     29.9747                -2.801158
5393  1617.6     30.0517                -2.801049
5409  1622.4     30.136                -2.801292
5425  1627.2     30.2226                -2.802325
5441  1632       30.3119                -2.802817
5457  1636.8     30.3853                -2.803312
5473  1641.6     30.4656                -2.803456
5489  1646.4     30.5543                -2.802739
5505  1651.2     30.6413                -2.801919
5521  1656       30.73234                 -2.801476
5537  1660.8     30.8069                -2.801557
5553  1665.6     30.8854                -2.802241
5569  1670.4     30.9659                -2.802321
5585  1675.2     31.0516                -2.802553
5601  1680       31.1465                -2.802853
5617  1684.8     31.2259                -2.805129
5633  1689.6     31.3024                -2.804604
5649  1694.4     31.3842                -2.804814
5665  1699.2     31.4719                -2.804275
5681  1704       31.5581                -2.804116
5697  1708.8     31.6382                -2.805012
5713  1713.6     31.7203                -2.805069
5729  1718.4     31.79488                 -2.80571
5745  1723.2     31.8864                -2.806073
5761  1728       31.9709                -2.806352
5777  1732.8     32.0488                -2.807098
5793  1737.6     32.1368                  -2.806652
5809  1742.4     32.2177                -2.806526
5825  1747.2     32.307                -2.805245
5841  1752       32.3844                -2.804685
5857  1756.8     32.46                -2.803715
5873  1761.6     32.549                -2.803301
5889  1766.4     32.6317                -2.802693
5905  1771.2     32.721                -2.802195
5921  1776       32.8049                -2.801989
5937  1780.8     32.879                -2.803077
5953  1785.6     32.9683                -2.803013
5969  1790.4     33.0536                -2.802527
5985  1795.2     33.1407                -2.800266
6001  1800       33.2134                -2.801915
6017  1804.8     33.293                -2.801744
6033  1809.6     33.3775                -2.802994
6049  1814.4     33.4659                -2.802986
6065  1819.2     33.5558                -2.804155
6081  1824       33.6292                -2.805283
6097  1828.8     33.7097                -2.80472
6113  1833.6     33.7983                -2.804928
6129  1838.4     33.8832                -2.803822
6145  1843.2     33.9754                -2.803661
6161  1848       34.0502                -2.802564
6177  1852.8     34.12848                 -2.802178
6193  1857.6     34.2084                -2.801951
6209  1862.4     34.296                -2.8025
6225  1867.2     34.3883                -2.802856
6241  1872       34.4693                -2.80304
6257  1876.8     34.5469                -2.804417
6273  1881.6     34.6283                -2.80323
6289  1886.4     34.7157                -2.802858
6305  1891.2     34.8028                -2.802499
6321  1896       34.879                -2.80357
6337  1900.8     34.9625                -2.803829
6353  1905.6     35.0383                -2.80536
6369  1910.4     35.1301                -2.802915
6385  1915.2     35.2134                -2.80331
6401  1920       35.2921                -2.80427
6417  1924.8     35.3793                -2.805542
6433  1929.6     35.4612                -2.803159
6449  1934.4     35.5511                -2.802263
6465  1939.2     35.6281                  -2.801299
6481  1944       35.7041                -2.800108
6497  1948.8     35.7924                -2.798497
6513  1953.6     35.8747                -2.798079
6529  1958.4     35.9674                -2.798651
6545  1963.2     36.0477                -2.79884
6561  1968       36.12147                 -2.799989
6577  1972.8     36.2105                -2.800402
6593  1977.6     36.297                -2.800743
6609  1982.4     36.3871                -2.799125
6625  1987.2     36.46072                 -2.800197
6641  1992       36.5371                -2.801462
6657  1996.8     36.6202                -2.802114
6673  2001.6     36.7096                -2.803175
6689  2006.4     36.7982                -2.803064
6705  2011.2     36.8713                -2.804541
6721  2016       36.9529                -2.804516
6737  2020.8     37.0431                -2.804007
6753  2025.6     37.1281                -2.804047
6769  2030.4     37.2179                -2.803882
6785  2035.2     37.29152                 -2.802622
6801  2040       37.3717                -2.802583
6817  2044.8     37.4521                -2.802363
6833  2049.6     37.5399                -2.802937
6849  2054.4     37.6328                -2.805049
6865  2059.2     37.712                -2.806496
6881  2064       37.7872                -2.807268
6897  2068.8     37.87104                 -2.806989
6913  2073.6     37.9594                -2.805296
6929  2078.4     38.0469                -2.80625
6945  2083.2     38.1221                -2.805288
6961  2088       38.205                -2.805906
6977  2092.8     38.2819                -2.806623
6993  2097.6     38.3732                -2.805992
7009  2102.4     38.4563                -2.805572
7025  2107.2     38.53637                 -2.805286
7041  2112       38.6243                -2.805641
7057  2116.8     38.7043                -2.804798
7073  2121.6     38.7942                -2.804938
7089  2126.4     38.8705                -2.804077
7105  2131.2     38.9466                -2.803806
7121  2136       39.0367                -2.803765
7137  2140.8     39.1176                -2.80361
7153  2145.6     39.2093                -2.804322
7169  2150.4     39.2897                -2.806519
7185  2155.2     39.3652                -2.80643
7201  2160       39.4555                -2.806462
7217  2164.8     39.5396                -2.806372
7233  2169.6     39.628                -2.804909
7249  2174.4     39.7013                -2.80466
7265  2179.2     39.7795                -2.80637
7281  2184       39.864                -2.80696
7297  2188.8     39.9529                -2.806207
7313  2193.6     40.0415                -2.807226
7329  2198.4     40.11566                 -2.807573
7345  2203.2     40.19489                 -2.808448
7361  2208       40.2847                -2.807907
7377  2212.8     40.3715                -2.808023
7393  2217.6     40.462                -2.80715
7409  2222.4     40.5356                  -2.805955
7425  2227.2     40.6139                -2.806688
7441  2232       40.6952                -2.806304
7457  2236.8     40.7839                -2.805701
7473  2241.6     40.8758                -2.806531
7489  2246.4     40.955                -2.804251
7505  2251.2     41.031                -2.807033
7521  2256       41.1151                -2.807026
7537  2260.8     41.2021                -2.806271
7553  2265.6     41.2849                -2.805563
7569  2270.4     41.3629                -2.807141
7585  2275.2     41.44754                 -2.805292
7601  2280       41.5274                -2.806401
7617  2284.8     41.6165                -2.805699
7633  2289.6     41.7002                -2.805557
7649  2294.4     41.7792                -2.804096
7665  2299.2     41.8651                -2.80435
7681  2304       41.9467                -2.805042
7697  2308.8     42.037                -2.803504
7713  2313.6     42.1151                -2.803342
7729  2318.4     42.1909                -2.803755
7745  2323.2     42.2791                -2.802918
7761  2328       42.359                -2.80248
7777  2332.8     42.4502                -2.803186
7793  2337.6     42.5357                -2.805038
7809  2342.4     42.6084                -2.805188
7825  2347.2     42.69859                 -2.80345
7841  2352       42.7825                -2.803334
7857  2356.8     42.869                -2.804283
7873  2361.6     42.9474                -2.803154
7889  2366.4     43.0251                -2.804424
7905  2371.2     43.10969                 -2.804513
7921  2376       43.19511                 -2.804767
7937  2380.8     43.287                -2.804647
7953  2385.6     43.3587                -2.805084
7969  2390.4     43.4375                -2.80698
7985  2395.2     43.5276                -2.806396
8001  2400       43.6138                -2.804909
8017  2404.8     43.7021                -2.803989
8033  2409.6     43.7795                -2.804814
8049  2414.4     43.8556                -2.804061
8065  2419.2     43.94                -2.80497
8081  2424       44.0263                -2.804362
8097  2428.8     44.1203                -2.803927
8113  2433.6     44.1972                -2.804909
8129  2438.4     44.2736                -2.807805
8145  2443.2     44.3593                -2.805465
8161  2448       44.4454                -2.806768
8177  2452.8     44.53                -2.807273
8193  2457.6     44.6084                -2.806059
8209  2462.4     44.689                -2.805597
8225  2467.2     44.7697                -2.806777
8241  2472       44.85877                 -2.807597
8257  2476.8     44.9411                -2.80797
8273  2481.6     45.0212                -2.80764
8289  2486.4     45.1058                -2.807801
8305  2491.2     45.1896                -2.805584
8321  2496       45.2782                -2.804357
8337  2500.8     45.3575                -2.804704
8353  2505.6     45.4349                -2.803792
8369  2510.4     45.5229                -2.802172
8385  2515.2     45.6005                -2.802505
8401  2520       45.6945                -2.801496
8417  2524.8     45.7784                -2.801647
8433  2529.6     45.8523                -2.801764
8449  2534.4     45.941                -2.801845
8465  2539.2     46.0229                -2.803319
8481  2544       46.1127                -2.801704
8497  2548.8     46.1889                -2.801896
8513  2553.6     46.2631                -2.801332
8529  2558.4     46.3529                -2.801681
8545  2563.2     46.436                -2.802117
8561  2568       46.5278                -2.80293
8577  2572.8     46.6027                -2.802433
8593  2577.6     46.68075                 -2.80323
8609  2582.4     46.7716                -2.803335
8625  2587.2     46.8584                -2.802415
8641  2592       46.9466                -2.802524
8657  2596.8     47.0195                -2.801944
8673  2601.6     47.0965                -2.801362
8689  2606.4     47.1808                -2.800215
8705  2611.2     47.26995                 -2.801929
8721  2616       47.3634                -2.801184
8737  2620.8     47.44                -2.802612
8753  2625.6     47.5147                -2.803913
8769  2630.4     47.602                -2.80188
8785  2635.2     47.688                -2.800133
8801  2640       47.7779                -2.800306
8817  2644.8     47.8525                -2.800466
8833  2649.6     47.9324                -2.801282
8849  2654.4     48.01369                 -2.800168
8865  2659.2     48.1017                -2.799718
8881  2664       48.1876                -2.798997
8897  2668.8     48.2653                  -2.798695
8913  2673.6     48.3469                -2.800037
8929  2678.4     48.4344                -2.798374
8945  2683.2     48.5212                -2.79776
8961  2688       48.6006                -2.795937
8977  2692.8     48.6785                -2.79479
8993  2697.6     48.7655                -2.794879
9009  2702.4     48.8442                -2.794923
9025  2707.2     48.935                -2.793449
9041  2712       49.0215                -2.795898
9057  2716.8     49.0976                -2.79515
9073  2721.6     49.1818                -2.79636
9089  2726.4     49.2637                -2.7963
9105  2731.2     49.354                -2.794917
9121  2736       49.4381                -2.794998
9137  2740.8     49.5113                -2.797924
9153  2745.6     49.598                -2.798867
9169  2750.4     49.6751                -2.799112
9185  2755.2     49.7672                -2.798908
9201  2760       49.848                -2.800293
9217  2764.8     49.9235                -2.801101
9233  2769.6     50.0172                -2.799228
9249  2774.4     50.0987                -2.798663
9265  2779.2     50.1876                -2.797591
9281  2784       50.26456                 -2.800785
9297  2788.8     50.3402                -2.802138
9313  2793.6     50.4257                -2.800664
9329  2798.4     50.5112                -2.800312
9345  2803.2     50.6044                -2.800014
9361  2808       50.6817                -2.800337
9377  2812.8     50.7574                -2.801558
9393  2817.6     50.8431                -2.802034
9409  2822.4     50.9336                -2.803716
9425  2827.2     51.0203                -2.802924
9441  2832       51.0926                -2.80375
9457  2836.8     51.1703                -2.803437
9473  2841.6     51.2554                -2.803581
9489  2846.4     51.344                -2.803761
9505  2851.2     51.4334                -2.805
9521  2856       51.509                -2.804538
9537  2860.8     51.5896                -2.805149
9553  2865.6     51.6769                -2.802629
9569  2870.4     51.762                -2.80249
9585  2875.2     51.8479                -2.802381
9601  2880       51.9235                -2.800618
9617  2884.8     52.0043                -2.800738
9633  2889.6     52.0866                -2.80234
9649  2894.4     52.1748                -2.803474
9665  2899.2     52.26617                 -2.801514
9681  2904       52.3449                -2.801712
9697  2908.8     52.4223                -2.799712
9713  2913.6     52.505                -2.800993
9729  2918.4     52.5934                -2.801124
9745  2923.2     52.6762                -2.800868
9761  2928       52.7547                -2.800946
9777  2932.8     52.839                -2.801179
9793  2937.6     52.9178                -2.803453
9809  2942.4     53.0092                -2.802737
9825  2947.2     53.0911                -2.801837
9841  2952       53.1702                  -2.804664
9857  2956.8     53.2572                -2.805148
9873  2961.6     53.3399                -2.802986
9889  2966.4     53.4289                -2.802886
9905  2971.2     53.5095                -2.802227
9921  2976       53.58429                 -2.801823
9937  2980.8     53.6707                -2.802148
9953  2985.6     53.7499                -2.799882
9969  2990.4     53.8429                -2.801294
9985  2995.2     53.9268                -2.802035
10001 3000       54.0001                -2.801885
10017 3004.8     54.0906                -2.801658
10033 3009.6     54.1732                -2.799842
10049 3014.4     54.26164                 -2.799783
10065 3019.2     54.33667                 -2.800153
10081 3024       54.413                -2.798471
10097 3028.8     54.5005                -2.799189
10113 3033.6     54.5861                -2.797821
10129 3038.4     54.6773                -2.797587
10145 3043.2     54.7508                -2.798189
10161 3048       54.8291                -2.796918
10177 3052.8     54.9197                -2.796436
10193 3057.6     55.0077                -2.795268
10209 3062.4     55.0941                -2.792504
10225 3067.2     55.1631                -2.79273
10241 3072       55.2434                -2.790644
10257 3076.8     55.3295                -2.788132
10273 3081.6     55.4195                -2.789353
10289 3086.4     55.513                -2.78994
10305 3091.2     55.5885                -2.788032
10321 3096       55.6625                -2.789343
10337 3100.8     55.7499                -2.78923
10353 3105.6     55.8348                -2.787242
10369 3110.4     55.9267                -2.787372
10385 3115.2     56.0027                -2.789788
10401 3120       56.0791                -2.788448
10417 3124.8     56.1613                -2.788109
10433 3129.6     56.2499                -2.789705
10449 3134.4     56.3366                -2.792672
10465 3139.2     56.415                -2.79207
10481 3144       56.4954                  -2.791585
10497 3148.8     56.5803                -2.790145
10513 3153.6     56.6692                -2.788816
10529 3158.4     56.7556                -2.789045
10545 3163.2     56.8317                -2.789498
10561 3168       56.9115                -2.789873
10577 3172.8     56.9914                -2.791272
10593 3177.6     57.0838                -2.79061
10609 3182.4     57.1724                -2.793312
10625 3187.2     57.2472                -2.79533
10641 3192       57.3319                -2.796755
10657 3196.8     57.4118                -2.796502
10673 3201.6     57.50187                 -2.79652
10689 3206.4     57.58523                 -2.795143
10705 3211.2     57.6583                -2.796257
10721 3216       57.7468                -2.796974
10737 3220.8     57.82286                 -2.79571
10753 3225.6     57.9183                -2.796348
10769 3230.4     57.99639                 -2.79809
10785 3235.2     58.0717                -2.797543
10801 3240       58.1636                -2.799406
10817 3244.8     58.2483                -2.797417
10833 3249.6     58.3359                -2.797729
10849 3254.4     58.409                -2.796818
10865 3259.2     58.4845                -2.794681
10881 3264       58.5755                -2.796639
10897 3268.8     58.66171                 -2.796488
10913 3273.6     58.7508                -2.794125
10929 3278.4     58.8276                -2.794569
10945 3283.2     58.9047                -2.79623
10961 3288       58.9926                -2.79493
10977 3292.8     59.0811                -2.794469
10993 3297.6     59.1686                -2.793455
11009 3302.4     59.2388                -2.792351
11025 3307.2     59.3197                -2.793612
11041 3312       59.4041                -2.792545
11057 3316.8     59.4935                -2.793298
11073 3321.6     59.5822                -2.792534
11089 3326.4     59.655                -2.79273
11105 3331.2     59.7328                -2.794018
11121 3336       59.827                -2.794576
11137 3340.8     59.9125                -2.796936
11153 3345.6     60.0015                -2.794186
11169 3350.4     60.0727                -2.792729
11185 3355.2     60.1514                -2.796037
11201 3360       60.2364                -2.795891
11217 3364.8     60.3246                -2.794492
11233 3369.6     60.4148                -2.795812
11249 3374.4     60.4929                -2.797424
11265 3379.2     60.5685                -2.796955
11281 3384       60.6546                -2.800461
11297 3388.8     60.7439                -2.799076
11313 3393.6     60.8291                -2.797634
11329 3398.4     60.9063                -2.800566
11345 3403.2     60.9833                -2.79993
11361 3408       61.0654                -2.800409
11377 3412.8     61.1577                -2.798825
11393 3417.6     61.2408                -2.800501
11409 3422.4     61.3203                -2.800527
11425 3427.2     61.4009                -2.800267
11441 3432       61.48507                 -2.798656
11457 3436.8     61.5748                -2.797502
11473 3441.6     61.6531                -2.795044
11489 3446.4     61.7318                -2.795198
11505 3451.2     61.81944                 -2.795663
11521 3456       61.8986                -2.794361
11537 3460.8     61.99                -2.793945
11553 3465.6     62.0749                -2.793829
11569 3470.4     62.1489                -2.79392
11585 3475.2     62.2356                -2.793792
11601 3480       62.3172                -2.793743
11617 3484.8     62.4067                -2.794559
11633 3489.6     62.4888                -2.794538
11649 3494.4     62.5652                -2.794515
11665 3499.2     62.6506                -2.797266
11681 3504       62.72968                 -2.7962
11697 3508.8     62.8217                -2.795162
11713 3513.6     62.901                -2.797037
11729 3518.4     62.9767                -2.798987
11745 3523.2     63.06965                 -2.797265
11761 3528       63.1556                -2.79779
11777 3532.8     63.2423                -2.798236
11793 3537.6     63.3156                -2.797804
11809 3542.4     63.3914                -2.795685
11825 3547.2     63.4793                -2.795819
11841 3552       63.5653                -2.797212
11857 3556.8     63.6594                -2.795487
11873 3561.6     63.7353                -2.794276
11889 3566.4     63.8109                -2.796216
11905 3571.2     63.8974                -2.796343
11921 3576       63.9869                -2.796836
11937 3580.8     64.0755                -2.795608
11953 3585.6     64.1442                -2.795626
11969 3590.4     64.22432                 -2.796943
11985 3595.2     64.3089                -2.796569
12001 3600       64.3979                -2.796917
12017 3604.8     64.4873                -2.796855
12033 3609.6     64.5607                -2.795302
12049 3614.4     64.6411                -2.795395
12065 3619.2     64.7307                -2.792691
12081 3624       64.8144                -2.793978
12097 3628.8     64.9017                -2.794312
12113 3633.6     64.9745                -2.790851
12129 3638.4     65.0569                -2.791728
12145 3643.2     65.1417                -2.790747
12161 3648       65.2317                -2.792688
12177 3652.8     65.3201                -2.793131
12193 3657.6     65.3957                -2.795283
12209 3662.4     65.4735                -2.796449
12225 3667.2     65.5618                -2.79614
12241 3672       65.6489                -2.794595
12257 3676.8     65.7295                -2.795093
12273 3681.6     65.8076                -2.795975
12289 3686.4     65.8892                -2.795983
12305 3691.2     65.9729                -2.795686
12321 3696       66.0637                -2.798763
12337 3700.8     66.146                -2.798278
12353 3705.6     66.2226                -2.798788
12369 3710.4     66.30765                 -2.797941
12385 3715.2     66.3922                -2.79887
12401 3720       66.48144                 -2.797587
12417 3724.8     66.56568                 -2.794909
12433 3729.6     66.641                -2.793813
12449 3734.4     66.7243                -2.795099
12465 3739.2     66.79997                 -2.793786
12481 3744       66.8961                -2.793517
12497 3748.8     66.9814                -2.788939
12513 3753.6     67.0562                -2.792197
12529 3758.4     67.142                -2.791313
12545 3763.2     67.2229                -2.789266
12561 3768       67.3121                -2.789581
12577 3772.8     67.3927                -2.788876
12593 3777.6     67.4653                -2.789244
12609 3782.4     67.5554                -2.788864
12625 3787.2     67.6372                -2.789965
12641 3792       67.7279                -2.788115
12657 3796.8     67.8063                -2.786771
12673 3801.6     67.8816                -2.788809
12689 3806.4     67.9749                -2.788721
12705 3811.2     68.0575                -2.787779
12721 3816       68.1466                -2.787187
12737 3820.8     68.2191                -2.786413
12753 3825.6     68.2961                -2.786568
12769 3830.4     68.3847                -2.786329
12785 3835.2     68.4732                -2.786947
12801 3840       68.56239                 -2.788743
12817 3844.8     68.6395                -2.790165
12833 3849.6     68.7134                -2.791252
12849 3854.4     68.80506                 -2.792284
12865 3859.2     68.89295                 -2.791682
12881 3864       68.9825                -2.78945
12897 3868.8     69.0529                -2.795096
12913 3873.6     69.1309                -2.796363
12929 3878.4     69.2153                -2.797937
12945 3883.2     69.3043                -2.795796
12961 3888       69.3948                -2.797307
12977 3892.8     69.4661                -2.798251
12993 3897.6     69.5466                -2.799002
13009 3902.4     69.63588                 -2.798111
13025 3907.2     69.7209                -2.797258
13041 3912       69.8117                -2.797397
13057 3916.8     69.885                   -2.797219
13073 3921.6     69.9647                -2.79667
13089 3926.4     70.0478                -2.796778
13105 3931.2     70.134                -2.794959
13121 3936       70.2274                -2.796766
13137 3940.8     70.3049                -2.798456
13153 3945.6     70.3785                -2.796424
13169 3950.4     70.4661                -2.800202
13185 3955.2     70.5564                -2.799301
13201 3960       70.6383                -2.798536
13217 3964.8     70.7129                -2.799419
13233 3969.6     70.79372                 -2.798076
13249 3974.4     70.878                -2.795659
13265 3979.2     70.9678                -2.79636
13281 3984       71.0521                -2.795348
13297 3988.8     71.1298                -2.79623
13313 3993.6     71.2109                -2.796676
13329 3998.4     71.2956                -2.797281
13345 4003.2     71.3852                -2.79469
13361 4008       71.4656                -2.792443
13377 4012.8     71.542                -2.793763
13393 4017.6     71.6286                -2.790934
13409 4022.4     71.709                -2.790171
13425 4027.2     71.7987                -2.787382
13441 4032       71.8866                -2.787194
13457 4036.8     71.9614                -2.789691
13473 4041.6     72.0467                -2.786727
13489 4046.4     72.1276                -2.786408
13505 4051.2     72.2203                -2.782182
13521 4056       72.2986                -2.780992
13537 4060.8     72.3729                -2.783524
13553 4065.6     72.46008                 -2.783015
13569 4070.4     72.5401                -2.785046
13585 4075.2     72.6342                -2.781523
13601 4080       72.7118                -2.779235
13617 4084.8     72.7888                -2.781224
13633 4089.6     72.8811                -2.78344
13649 4094.4     72.9623                -2.783233
13665 4099.2     73.0487                -2.779479
13681 4104       73.1302                -2.779461
13697 4108.8     73.2037                -2.780386
13713 4113.6     73.2933                -2.777748
13729 4118.4     73.3736                -2.776703
13745 4123.2     73.4664                -2.778449
13761 4128       73.548                -2.777088
13777 4132.8     73.622                -2.777624
13793 4137.6     73.7096                -2.77769
13809 4142.4     73.7961                -2.775516
13825 4147.2     73.8849                -2.776054
13841 4152       73.9582                -2.77199
13857 4156.8     74.0358                -2.774674
13873 4161.6     74.1234                -2.775361
13889 4166.4     74.2092                -2.773386
13905 4171.2     74.2986                -2.775198
13921 4176       74.3709                -2.77365
13937 4180.8     74.4502                -2.775554
13953 4185.6     74.5422                -2.773214
13969 4190.4     74.6295                -2.7701
13985 4195.2     74.7152                -2.769315
14001 4200       74.7834                -2.771934
14017 4204.8     74.8656                -2.76915
14033 4209.6     74.9521                -2.767972
14049 4214.4     75.04182                 -2.767799
14065 4219.2     75.1348                -2.768584
14081 4224       75.2046                -2.77203
14097 4228.8     75.2835                -2.772397
14113 4233.6     75.3726                -2.774452
14129 4238.4     75.457                -2.775985
14145 4243.2     75.5502                -2.77324
14161 4248       75.6217                -2.773903
14177 4252.8     75.7002                -2.776245
14193 4257.6     75.7822                -2.778231
14209 4262.4     75.8703                -2.77681
14225 4267.2     75.96                -2.778499
14241 4272       76.03668                 -2.776868
14257 4276.8     76.1164                -2.773383
14273 4281.6     76.2042                -2.775579
14289 4286.4     76.2889                -2.775623
14305 4291.2     76.379                -2.776302
14321 4296       76.4528                -2.776634
14337 4300.8     76.5309                -2.7749
14353 4305.6     76.6144                -2.777586
14369 4310.4     76.7034                -2.779777
14385 4315.2     76.7936                -2.78085
14401 4320       76.8706                -2.781387
14417 4324.8     76.9495                -2.784508
14433 4329.6     77.0343                -2.78436
14449 4334.4     77.122                -2.785473
14465 4339.2     77.2069                -2.784934
14481 4344       77.2848                -2.7862
14497 4348.8     77.3655                -2.785532
14513 4353.6     77.4444                -2.788277
14529 4358.4     77.5354                -2.790099
14545 4363.2     77.619                -2.789593
14561 4368       77.6964                -2.789067
14577 4372.8     77.786                -2.78674
14593 4377.6     77.8664                -2.788537
14609 4382.4     77.9531                -2.788243
14625 4387.2     78.0295                -2.786496
14641 4392       78.1094                -2.78975
14657 4396.8     78.1997                -2.7861
14673 4401.6     78.2788                -2.788418
14689 4406.4     78.37155                 -2.78681
14705 4411.2     78.4529                -2.788769
14721 4416       78.5251                -2.791495
14737 4420.8     78.6143                -2.789925
14753 4425.6     78.6991                -2.788113
14769 4430.4     78.7868                -2.783937
14785 4435.2     78.8613                -2.788116
14801 4440       78.9385                -2.789448
14817 4444.8     79.0282                -2.792035
14833 4449.6     79.1114                -2.789375
14849 4454.4     79.2037                -2.789802
14865 4459.2     79.279                -2.79288
14881 4464       79.3538                -2.792154
14897 4468.8     79.44795                 -2.794195
14913 4473.6     79.53282                 -2.79202
14929 4478.4     79.6175                -2.792469
14945 4483.2     79.6965                -2.79046
14961 4488       79.769                -2.790246
14977 4492.8     79.8606                -2.788903
14993 4497.6     79.9454                -2.788684
15001 4500       79.9871                -2.790007