File: rawdata/SM_EC-EC_h2.txt
 SM_EC_EC
Creation Date : 12/21/2018 12:43:34 PM
User : PSCM

HeatFlow :
 Initial Mass : 0 mg
 Molar Mass : N/A

Index Time (s)   Furnace Temperature (Â°C) HeatFlow (mW)
1     0          4.450538                 0.251444
17    4.8        4.499701                 0.215673
33    9.6        4.183299                 0.18416
49    14.4       3.86239                  0.156919
65    19.2       3.572302                 0.134904
81    24         3.387374                 0.117133
97    28.8       3.292508                 0.100495
113   33.6       3.205138                 0.082402
129   38.4       3.199884                 0.061077
145   43.2       3.164643                 0.034922
161   48         3.165865                 0.003484
177   52.8       3.198891                 -0.033753
193   57.6       3.215012                 -0.07783
209   62.4       3.246651                 -0.127698
225   67.2       3.280952                 -0.182432
241   72         3.336491                 -0.241728
257   76.8       3.391667                 -0.30542
273   81.6       3.451254                 -0.372286
289   86.4       3.506315                 -0.442564
305   91.2       3.567354                 -0.515067
321   96         3.636734                 -0.589589
337   100.8      3.697952                 -0.665888
353   105.6      3.765699                 -0.743057
369   110.4      3.835502                 -0.82104
385   115.2      3.912043                 -0.89967
401   120        3.985837                 -0.977778
417   124.8      4.062552                 -1.056512
433   129.6      4.136794                 -1.132948
449   134.4      4.213274                 -1.209216
465   139.2      4.292604                 -1.283971
481   144        4.371249                 -1.35779
497   148.8      4.451253                 -1.430449
513   153.6      4.531658                 -1.500522
529   158.4      4.612896                 -1.569345
545   163.2      4.694452                 -1.636405
561   168        4.738199                 -1.700904
577   172.8      4.753762                 -1.762986
593   177.6      4.787391                 -1.822252
609   182.4      4.848124                 -1.879933
625   187.2      4.931657                 -1.935796
641   192        5.003206                 -1.989071
657   196.8      5.083923                 -2.040695
673   201.6      5.159956                 -2.089732
689   206.4      5.244151                 -2.138069
705   211.2      5.337112                 -2.183423
721   216        5.418988                 -2.227211
737   220.8      5.501532                 -2.268168
753   225.6      5.586331                 -2.307127
769   230.4      5.678091                 -2.344395
785   235.2      5.769618                 -2.3798
801   240        5.849608                 -2.413499
817   244.8      5.939764                 -2.445301
833   249.6      6.030578                 -2.475929
849   254.4      6.124366                 -2.504704
865   259.2      6.207933                 -2.530569
881   264        6.298941                 -2.555169
897   268.8      6.390677                 -2.578775
913   273.6      6.48705                  -2.599988
929   278.4      6.571702                 -2.62017
945   283.2      6.654606                 -2.639003
961   288        6.746786                 -2.657901
977   292.8      6.840845                 -2.675703
993   297.6      6.939749                 -2.691747
1009  302.4      7.027322                 -2.705805
1025  307.2      7.117315                 -2.719983
1041  312        7.202542                 -2.73186
1057  316.8      7.299674                 -2.744929
1073  321.6      7.382257                 -2.755188
1089  326.4      7.467576                 -2.76669
1105  331.2      7.558769                 -2.776581
1121  336        7.649666                 -2.78544
1137  340.8      7.745631                 -2.7944
1153  345.6      7.829255                 -2.802206
1169  350.4      7.919599                 -2.807605
1185  355.2      8.007194                 -2.813211
1201  360        8.102573                 -2.81813
1217  364.8      8.191452                 -2.822507
1233  369.6      8.272895                 -2.827287
1249  374.4      8.360166                 -2.830927
1265  379.2      8.450902                 -2.833874
1281  384        8.548083                 -2.837555
1297  388.8      8.632658                 -2.840528
1313  393.6      8.719839                 -2.842126
1329  398.4      8.804643                 -2.844095
1345  403.2      8.896712                 -2.8456
1361  408        8.984955                 -2.847352
1377  412.8      9.062715                 -2.848759
1393  417.6      9.153701                 -2.849344
1409  422.4      9.23972                  -2.850695
1425  427.2      9.333889                 -2.851065
1441  432        9.413886                 -2.850672
1457  436.8      9.498386                 -2.851376
1473  441.6      9.588171                 -2.850449
1489  446.4      9.677485                 -2.84989
1505  451.2      9.762933                 -2.848993
1521  456        9.846519                 -2.847449
1537  460.8      9.932999                 -2.847341
1553  465.6      10.0132                -2.846714
1569  470.4      10.1071                -2.845061
1585  475.2      10.1956                -2.844769
1601  480        10.2751                -2.844346
1617  484.8      10.3654                -2.842895
1633  489.6      10.4529                -2.841106
1649  494.4      10.5445                -2.839953
1665  499.2      10.621                -2.840438
1681  504        10.702                -2.839813
1697  508.8      10.7859                -2.838897
1713  513.6      10.8717                -2.838879
1729  518.4      10.962                -2.837992
1745  523.2      11.0442                -2.836982
1761  528        11.1291                -2.836694
1777  532.8      11.2134                -2.835384
1793  537.6      11.3025                -2.833727
1809  542.4      11.3899                -2.831657
1825  547.2      11.46714                 -2.830829
1841  552        11.554                -2.829892
1857  556.8      11.6335                -2.828389
1873  561.6      11.7237                -2.828301
1889  566.4      11.8093                -2.828096
1905  571.2      11.8898                -2.828406
1921  576        11.9789                -2.827558
1937  580.8      12.0635                -2.827186
1953  585.6      12.1534                -2.825739
1969  590.4      12.2277                -2.824416
1985  595.2      12.3087                -2.824564
2001  600        12.3928                -2.823626
2017  604.8      12.48                -2.822734
2033  609.6      12.5692                -2.822447
2049  614.4      12.6481                -2.821644
2065  619.2      12.7292                -2.820239
2081  624        12.8156                -2.818376
2097  628.8      12.9033                -2.816674
2113  633.6      12.9854                -2.814993
2129  638.4      13.0666                -2.814023
2145  643.2      13.1489                -2.812464
2161  648        13.2269                -2.812689
2177  652.8      13.32                    -2.810755
2193  657.6      13.4093                -2.811178
2209  662.4      13.484                -2.811857
2225  667.2      13.5756                -2.811841
2241  672        13.6556                -2.810157
2257  676.8      13.7449                -2.809516
2273  681.6      13.8189                -2.808988
2289  686.4      13.8985                -2.809348
2305  691.2      13.9848                -2.809557
2321  696        14.0711                -2.809736
2337  700.8      14.1611                -2.811719
2353  705.6      14.236                -2.810566
2369  710.4      14.3176                -2.811193
2385  715.2      14.4078                -2.810161
2401  720        14.4921                -2.810089
2417  724.8      14.5842                -2.808782
2433  729.6      14.6609                -2.809064
2449  734.4      14.7384                -2.808177
2465  739.2      14.8184                -2.806686
2481  744        14.9052                -2.806617
2497  748.8      14.9979                -2.807428
2513  753.6      15.0772                -2.807142
2529  758.4      15.1591                -2.80758
2545  763.2      15.2393                -2.80784
2561  768        15.3292                -2.80631
2577  772.8      15.4093                -2.805452
2593  777.6      15.4872                -2.805374
2609  782.4      15.5737                -2.804187
2625  787.2      15.6517                -2.805245
2641  792        15.7447                -2.804916
2657  796.8      15.8247                -2.80573
2673  801.6      15.9024                -2.80571
2689  806.4      15.9943                -2.80442
2705  811.2      16.077                -2.804011
2721  816        16.1634                -2.802556
2737  820.8      16.2396                -2.801692
2753  825.6      16.3191                -2.799895
2769  830.4      16.4039                -2.801295
2785  835.2      16.491                -2.801909
2801  840        16.5826                -2.801066
2817  844.8      16.6596                -2.801793
2833  849.6      16.7397                -2.802912
2849  854.4      16.8262                -2.803444
2865  859.2      16.9113                -2.802929
2881  864        17.0021                -2.802147
2897  868.8      17.0764                -2.801943
2913  873.6      17.1566                -2.804209
2929  878.4      17.2348                -2.803622
2945  883.2      17.3236                -2.805812
2961  888        17.4108                -2.805204
2977  892.8      17.4913                -2.806518
2993  897.6      17.57265                 -2.80726
3009  902.4      17.6561                -2.806108
3025  907.2      17.745                -2.805009
3041  912        17.8291                -2.804718
3057  916.8      17.9065                -2.805208
3073  921.6      17.9921                -2.805723
3089  926.4      18.0667                -2.806075
3105  931.2      18.1598                -2.806602
3121  936        18.2469                -2.8072
3137  940.8      18.3208                -2.808973
3153  945.6      18.4117                -2.810128
3169  950.4      18.4934                -2.809052
3185  955.2      18.5809                -2.809381
3201  960        18.6573                -2.808726
3217  964.8      18.7338                -2.809606
3233  969.6      18.8188                -2.810142
3249  974.4      18.9054                -2.809831
3265  979.2      18.9963                -2.811537
3281  984        19.0706                -2.80973
3297  988.8      19.1508                -2.809485
3313  993.6      19.2415                -2.809911
3329  998.4      19.3252                -2.809872
3345  1003.2     19.4142                -2.808944
3361  1008       19.4871                -2.808143
3377  1012.8     19.5681                -2.807036
3393  1017.6     19.65                -2.806329
3409  1022.4     19.7368                -2.805045
3425  1027.2     19.8301                -2.80644
3441  1032       19.9103                -2.806722
3457  1036.8     19.9883                -2.805702
3473  1041.6     20.0711                -2.806649
3489  1046.4     20.1573                -2.805864
3505  1051.2     20.2392                -2.806263
3521  1056       20.3202                -2.80595
3537  1060.8     20.4035                -2.806671
3553  1065.6     20.4815                -2.806338
3569  1070.4     20.5723                -2.807746
3585  1075.2     20.6561                -2.808256
3601  1080       20.7332                -2.808202
3617  1084.8     20.8225                -2.809676
3633  1089.6     20.9036                -2.809426
3649  1094.4     20.9926                -2.807969
3665  1099.2     21.0755                -2.807867
3681  1104       21.1498                -2.807308
3697  1108.8     21.23674                 -2.80714
3713  1113.6     21.3166                -2.806586
3729  1118.4     21.4107                -2.807105
3745  1123.2     21.4895                -2.808289
3761  1128       21.5679                -2.808199
3777  1132.8     21.6543                -2.80746
3793  1137.6     21.7413                -2.808872
3809  1142.4     21.82826                 -2.807435
3825  1147.2     21.9021                -2.807841
3841  1152       21.9828                -2.807618
3857  1156.8     22.0662                -2.807325
3873  1161.6     22.1517                -2.807004
3889  1166.4     22.2421                -2.8064
3905  1171.2     22.3179                -2.806642
3921  1176       22.3998                -2.806191
3937  1180.8     22.4855                -2.806314
3953  1185.6     22.5725                -2.804421
3969  1190.4     22.6537                -2.804073
3985  1195.2     22.7315                  -2.802849
4001  1200       22.8149                -2.801635
4017  1204.8     22.8961                -2.801253
4033  1209.6     22.9879                -2.801515
4049  1214.4     23.0756                -2.801812
4065  1219.2     23.1511                -2.802228
4081  1224       23.2363                -2.803071
4097  1228.8     23.3151                -2.801365
4113  1233.6     23.4059                -2.80137
4129  1238.4     23.49071                 -2.801528
4145  1243.2     23.5639                -2.802502
4161  1248       23.6496                -2.802127
4177  1252.8     23.7283                -2.802743
4193  1257.6     23.8204                -2.802834
4209  1262.4     23.9006                -2.803669
4225  1267.2     23.9754                -2.803428
4241  1272       24.0678                -2.804155
4257  1276.8     24.153                -2.803643
4273  1281.6     24.2411                -2.803213
4289  1286.4     24.3176                -2.802307
4305  1291.2     24.3959                -2.803316
4321  1296       24.4785                -2.803308
4337  1300.8     24.5659                -2.803305
4353  1305.6     24.6574                -2.804028
4369  1310.4     24.7355                -2.806176
4385  1315.2     24.81507                 -2.805783
4401  1320       24.8989                -2.806018
4417  1324.8     24.984                -2.806075
4433  1329.6     25.0758                -2.805754
4449  1334.4     25.1497                -2.804821
4465  1339.2     25.2286                -2.806186
4481  1344       25.3082                -2.80769
4497  1348.8     25.39713                 -2.808445
4513  1353.6     25.4828                -2.808283
4529  1358.4     25.561                -2.809397
4545  1363.2     25.6447                -2.806296
4561  1368       25.7299                -2.80636
4577  1372.8     25.8187                -2.805624
4593  1377.6     25.8976                -2.804373
4609  1382.4     25.9766                -2.805215
4625  1387.2     26.0613                -2.80441
4641  1392       26.1388                -2.803959
4657  1396.8     26.2333                  -2.803885
4673  1401.6     26.3176                -2.804724
4689  1406.4     26.393                -2.805032
4705  1411.2     26.4827                -2.804954
4721  1416       26.5637                -2.803645
4737  1420.8     26.6517                -2.804441
4753  1425.6     26.7281                -2.802958
4769  1430.4     26.8036                -2.803525
4785  1435.2     26.8922                -2.805571
4801  1440       26.9781                -2.805317
4817  1444.8     27.0686                -2.807064
4833  1449.6     27.1432                -2.807406
4849  1454.4     27.2221                -2.806838
4865  1459.2     27.3113                -2.807581
4881  1464       27.3993                -2.806907
4897  1468.8     27.4866                -2.806341
4913  1473.6     27.5611                -2.805919
4929  1478.4     27.6395                -2.806384
4945  1483.2     27.7235                -2.806303
4961  1488       27.8089                -2.806576
4977  1492.8     27.9041                -2.805023
4993  1497.6     27.9793                -2.806609
5009  1502.4     28.0575                -2.80824
5025  1507.2     28.1437                -2.807344
5041  1512       28.2283                -2.805143
5057  1516.8     28.3122                -2.805397
5073  1521.6     28.3907                -2.80458
5089  1526.4     28.4727                -2.805907
5105  1531.2     28.5529                -2.806019
5121  1536       28.6419                -2.805281
5137  1540.8     28.7262                -2.805659
5153  1545.6     28.8069                -2.805214
5169  1550.4     28.8908                -2.804903
5185  1555.2     28.9729                -2.80454
5201  1560       29.0624                -2.803287
5217  1564.8     29.1411                -2.801735
5233  1569.6     29.2188                -2.802807
5249  1574.4     29.3081                -2.801268
5265  1579.2     29.3839                -2.800574
5281  1584       29.4769                -2.800343
5297  1588.8     29.56151                 -2.801003
5313  1593.6     29.6361                -2.800991
5329  1598.4     29.7265                -2.8004
5345  1603.2     29.8101                -2.801134
5361  1608       29.897                -2.800672
5377  1612.8     29.9734                -2.79999
5393  1617.6     30.0505                -2.800489
5409  1622.4     30.1364                -2.801332
5425  1627.2     30.2224                -2.802291
5441  1632       30.3133                -2.801208
5457  1636.8     30.3856                -2.802553
5473  1641.6     30.4664                -2.803209
5489  1646.4     30.5553                -2.802068
5505  1651.2     30.6421                -2.801151
5521  1656       30.7325                -2.801159
5537  1660.8     30.80802                 -2.801959
5553  1665.6     30.8849                  -2.801312
5569  1670.4     30.9643                -2.800429
5585  1675.2     31.051                -2.802492
5601  1680       31.146                -2.80359
5617  1684.8     31.2252                -2.803872
5633  1689.6     31.30195                 -2.804175
5649  1694.4     31.3866                -2.805658
5665  1699.2     31.4718                -2.803655
5681  1704       31.5587                -2.80393
5697  1708.8     31.6371                -2.803973
5713  1713.6     31.72007                 -2.805454
5729  1718.4     31.7952                -2.805092
5745  1723.2     31.8856                -2.804928
5761  1728       31.971                -2.804706
5777  1732.8     32.0494                -2.80473
5793  1737.6     32.1379                -2.806069
5809  1742.4     32.2178                -2.805889
5825  1747.2     32.307                -2.80557
5841  1752       32.38457                 -2.804276
5857  1756.8     32.4613                -2.804464
5873  1761.6     32.5491                -2.803202
5889  1766.4     32.6302                -2.803297
5905  1771.2     32.7226                -2.802451
5921  1776       32.8039                -2.803183
5937  1780.8     32.8796                -2.803189
5953  1785.6     32.9675                -2.80239
5969  1790.4     33.0525                -2.801861
5985  1795.2     33.1406                -2.800209
6001  1800       33.2123                -2.800407
6017  1804.8     33.2933                -2.802589
6033  1809.6     33.3777                -2.802915
6049  1814.4     33.4659                -2.803452
6065  1819.2     33.5559                -2.803205
6081  1824       33.6285                -2.80372
6097  1828.8     33.7104                -2.804312
6113  1833.6     33.7994                -2.804522
6129  1838.4     33.8852                -2.803679
6145  1843.2     33.9749                -2.803255
6161  1848       34.04969                 -2.801705
6177  1852.8     34.1271                -2.803145
6193  1857.6     34.2088                -2.802464
6209  1862.4     34.2959                -2.802007
6225  1867.2     34.3899                -2.801281
6241  1872       34.4683                -2.804106
6257  1876.8     34.5455                -2.802979
6273  1881.6     34.629                -2.802466
6289  1886.4     34.7152                -2.802329
6305  1891.2     34.8023                -2.801133
6321  1896       34.8804                -2.801415
6337  1900.8     34.9613                -2.802479
6353  1905.6     35.0399                -2.804105
6369  1910.4     35.1304                -2.802645
6385  1915.2     35.2136                -2.803395
6401  1920       35.2904                -2.802336
6417  1924.8     35.382                -2.802696
6433  1929.6     35.4617                -2.802544
6449  1934.4     35.5505                -2.80076
6465  1939.2     35.6265                -2.800209
6481  1944       35.7036                -2.800451
6497  1948.8     35.7925                -2.799943
6513  1953.6     35.8766                -2.799139
6529  1958.4     35.966                -2.799992
6545  1963.2     36.0472                -2.799296
6561  1968       36.1208                -2.798672
6577  1972.8     36.2111                -2.800826
6593  1977.6     36.2962                -2.799037
6609  1982.4     36.3856                -2.799203
6625  1987.2     36.4597                -2.798821
6641  1992       36.5379                -2.799524
6657  1996.8     36.6212                -2.80092
6673  2001.6     36.7081                -2.803687
6689  2006.4     36.8007                -2.803886
6705  2011.2     36.8718                -2.803049
6721  2016       36.95291                 -2.803835
6737  2020.8     37.0427                -2.803284
6753  2025.6     37.1284                -2.804106
6769  2030.4     37.2174                -2.802971
6785  2035.2     37.2928                -2.803994
6801  2040       37.3722                -2.80465
6817  2044.8     37.4527                -2.804521
6833  2049.6     37.5399                -2.805172
6849  2054.4     37.632                -2.805281
6865  2059.2     37.7121                -2.806588
6881  2064       37.7879                -2.807508
6897  2068.8     37.872                -2.806349
6913  2073.6     37.9588                -2.807404
6929  2078.4     38.0439                -2.808087
6945  2083.2     38.1236                -2.805638
6961  2088       38.2061                -2.807028
6977  2092.8     38.2811                -2.807843
6993  2097.6     38.3721                -2.807084
7009  2102.4     38.4562                -2.807846
7025  2107.2     38.5347                -2.807593
7041  2112       38.6247                -2.80638
7057  2116.8     38.70591                 -2.803176
7073  2121.6     38.7927                -2.803445
7089  2126.4     38.8697                -2.801578
7105  2131.2     38.94597                 -2.80306
7121  2136       39.0363                -2.802443
7137  2140.8     39.1158                -2.802908
7153  2145.6     39.2093                -2.803434
7169  2150.4     39.292                -2.803018
7185  2155.2     39.3641                -2.804241
7201  2160       39.4547                -2.806792
7217  2164.8     39.5383                -2.805096
7233  2169.6     39.62875                 -2.804155
7249  2174.4     39.7002                -2.80373
7265  2179.2     39.7801                -2.803866
7281  2184       39.863                -2.804507
7297  2188.8     39.9535                -2.804468
7313  2193.6     40.0428                -2.806536
7329  2198.4     40.1139                -2.807223
7345  2203.2     40.1959                -2.807736
7361  2208       40.2849                -2.807185
7377  2212.8     40.3716                -2.807329
7393  2217.6     40.4617                -2.806684
7409  2222.4     40.5364                -2.807568
7425  2227.2     40.6158                -2.805577
7441  2232       40.6953                -2.807768
7457  2236.8     40.7823                -2.805511
7473  2241.6     40.8758                -2.804806
7489  2246.4     40.9551                -2.805375
7505  2251.2     41.0302                -2.806047
7521  2256       41.1141                -2.806882
7537  2260.8     41.2021                -2.807109
7553  2265.6     41.285                -2.806548
7569  2270.4     41.3629                -2.804304
7585  2275.2     41.4458                -2.805885
7601  2280       41.5262                -2.806379
7617  2284.8     41.6178                -2.803747
7633  2289.6     41.6993                -2.805679
7649  2294.4     41.7781                -2.803944
7665  2299.2     41.86389                 -2.804928
7681  2304       41.9465                -2.805461
7697  2308.8     42.038                -2.803263
7713  2313.6     42.1141                -2.801334
7729  2318.4     42.1902                -2.801432
7745  2323.2     42.2794                -2.801729
7761  2328       42.3591                -2.802223
7777  2332.8     42.45025                 -2.802076
7793  2337.6     42.536                -2.802286
7809  2342.4     42.60733                 -2.803012
7825  2347.2     42.6989                -2.803101
7841  2352       42.7827                -2.803656
7857  2356.8     42.8708                -2.804517
7873  2361.6     42.9468                -2.803874
7889  2366.4     43.0245                -2.804122
7905  2371.2     43.1083                -2.803706
7921  2376       43.1942                -2.806541
7937  2380.8     43.28598                 -2.804996
7953  2385.6     43.3596                -2.806122
7969  2390.4     43.4385                -2.805921
7985  2395.2     43.5286                -2.806495
8001  2400       43.615                -2.804706
8017  2404.8     43.7051                -2.804637
8033  2409.6     43.7782                -2.804759
8049  2414.4     43.8545                -2.805555
8065  2419.2     43.9387                -2.803423
8081  2424       44.0273                -2.803478
8097  2428.8     44.1201                -2.806275
8113  2433.6     44.1979                -2.806051
8129  2438.4     44.27411                 -2.806632
8145  2443.2     44.35945                 -2.807775
8161  2448       44.4454                -2.808071
8177  2452.8     44.5297                -2.807161
8193  2457.6     44.6072                -2.807928
8209  2462.4     44.6885                -2.809794
8225  2467.2     44.7701                -2.809655
8241  2472       44.8604                -2.806492
8257  2476.8     44.9425                -2.807231
8273  2481.6     45.022                -2.805477
8289  2486.4     45.10777                 -2.808183
8305  2491.2     45.1888                -2.807706
8321  2496       45.2778                -2.807586
8337  2500.8     45.3581                -2.804419
8353  2505.6     45.4355                -2.803431
8369  2510.4     45.524                -2.802498
8385  2515.2     45.6012                -2.801807
8401  2520       45.6944                -2.801703
8417  2524.8     45.77859                 -2.800248
8433  2529.6     45.8523                -2.800052
8449  2534.4     45.94111                 -2.801986
8465  2539.2     46.0222                -2.800031
8481  2544       46.1116                -2.798874
8497  2548.8     46.1878                -2.797282
8513  2553.6     46.2627                -2.799636
8529  2558.4     46.354                -2.799159
8545  2563.2     46.4385                -2.800543
8561  2568       46.5279                -2.802346
8577  2572.8     46.6013                -2.802457
8593  2577.6     46.6804                -2.801487
8609  2582.4     46.7711                -2.799554
8625  2587.2     46.8592                  -2.800454
8641  2592       46.9477                -2.799852
8657  2596.8     47.022                -2.799544
8673  2601.6     47.0984                -2.797902
8689  2606.4     47.1814                -2.798231
8705  2611.2     47.268                -2.796336
8721  2616       47.3627                -2.797736
8737  2620.8     47.44066                 -2.799028
8753  2625.6     47.5166                -2.798218
8769  2630.4     47.6012                -2.798425
8785  2635.2     47.6866                -2.797826
8801  2640       47.779                -2.795751
8817  2644.8     47.8538                -2.79808
8833  2649.6     47.933                -2.797828
8849  2654.4     48.0137                -2.797409
8865  2659.2     48.0983                -2.799354
8881  2664       48.1886                -2.798469
8897  2668.8     48.2679                -2.797526
8913  2673.6     48.3491                -2.797729
8929  2678.4     48.4329                -2.795599
8945  2683.2     48.5205                -2.794809
8961  2688       48.60075                 -2.795219
8977  2692.8     48.6797                -2.794662
8993  2697.6     48.7644                -2.79492
9009  2702.4     48.8443                -2.793072
9025  2707.2     48.93504                 -2.793356
9041  2712       49.02258                 -2.793423
9057  2716.8     49.098                -2.794595
9073  2721.6     49.1829                -2.793426
9089  2726.4     49.26354                 -2.794977
9105  2731.2     49.353                -2.796716
9121  2736       49.4365                -2.795228
9137  2740.8     49.5106                -2.795832
9153  2745.6     49.5972                -2.797847
9169  2750.4     49.6746                -2.797929
9185  2755.2     49.7683                -2.798565
9201  2760       49.8476                -2.798101
9217  2764.8     49.9238                -2.797481
9233  2769.6     50.0177                -2.798082
9249  2774.4     50.1008                -2.79975
9265  2779.2     50.1868                -2.797284
9281  2784       50.2641                -2.798766
9297  2788.8     50.3403                -2.79577
9313  2793.6     50.4264                -2.796881
9329  2798.4     50.511                -2.797885
9345  2803.2     50.604                -2.798082
9361  2808       50.6808                -2.798528
9377  2812.8     50.757                -2.800093
9393  2817.6     50.8457                -2.801569
9409  2822.4     50.9331                -2.800776
9425  2827.2     51.0191                -2.799475
9441  2832       51.089                -2.801227
9457  2836.8     51.1711                -2.799229
9473  2841.6     51.2564                -2.80016
9489  2846.4     51.3453                -2.800737
9505  2851.2     51.435                -2.800294
9521  2856       51.5069                -2.799724
9537  2860.8     51.5869                -2.799651
9553  2865.6     51.6759                -2.80084
9569  2870.4     51.7616                -2.799916
9585  2875.2     51.8481                -2.799087
9601  2880       51.9241                -2.796587
9617  2884.8     52.0039                -2.797933
9633  2889.6     52.0869                -2.798954
9649  2894.4     52.17592                 -2.798031
9665  2899.2     52.2668                -2.799403
9681  2904       52.3437                -2.800552
9697  2908.8     52.4233                -2.798316
9713  2913.6     52.5051                -2.798131
9729  2918.4     52.5927                -2.798908
9745  2923.2     52.6748                -2.798683
9761  2928       52.7551                -2.798145
9777  2932.8     52.8389                -2.801708
9793  2937.6     52.91733                 -2.80381
9809  2942.4     53.0083                -2.802917
9825  2947.2     53.0922                -2.801617
9841  2952       53.1699                -2.803726
9857  2956.8     53.2586                -2.802425
9873  2961.6     53.3402                -2.800823
9889  2966.4     53.4286                -2.800866
9905  2971.2     53.5103                -2.799787
9921  2976       53.58447                 -2.800085
9937  2980.8     53.6718                -2.798525
9953  2985.6     53.75                -2.800541
9969  2990.4     53.8422                -2.798847
9985  2995.2     53.926                -2.798435
10001 3000       54.0007                -2.797132
10017 3004.8     54.0909                -2.798104
10033 3009.6     54.1734                -2.800293
10049 3014.4     54.2589                -2.798889
10065 3019.2     54.337                -2.799385
10081 3024       54.4132                -2.798042
10097 3028.8     54.5011                -2.796939
10113 3033.6     54.5866                -2.797649
10129 3038.4     54.6787                -2.796692
10145 3043.2     54.7497                -2.795996
10161 3048       54.8283                  -2.796569
10177 3052.8     54.9208                -2.797322
10193 3057.6     55.0086                -2.795054
10209 3062.4     55.0933                -2.795768
10225 3067.2     55.164                -2.796542
10241 3072       55.2441                -2.795536
10257 3076.8     55.3301                -2.793962
10273 3081.6     55.4181                -2.793006
10289 3086.4     55.5126                -2.792189
10305 3091.2     55.5884                -2.795229
10321 3096       55.6642                -2.794688
10337 3100.8     55.7481                -2.794015
10353 3105.6     55.83672                 -2.79463
10369 3110.4     55.9266                -2.793682
10385 3115.2     56.0032                -2.793627
10401 3120       56.081                -2.795771
10417 3124.8     56.1619                -2.796439
10433 3129.6     56.2496                -2.796264
10449 3134.4     56.3364                -2.796435
10465 3139.2     56.4157                -2.798151
10481 3144       56.4963                -2.797711
10497 3148.8     56.5816                -2.79718
10513 3153.6     56.6695                -2.798894
10529 3158.4     56.7538                -2.796796
10545 3163.2     56.8302                -2.798339
10561 3168       56.9127                -2.798198
10577 3172.8     56.9933                -2.798881
10593 3177.6     57.0831                -2.798821
10609 3182.4     57.1713                -2.798755
10625 3187.2     57.2461                -2.801265
10641 3192       57.3319                -2.800584
10657 3196.8     57.4101                -2.801174
10673 3201.6     57.50134                 -2.801407
10689 3206.4     57.5839                -2.799812
10705 3211.2     57.6589                -2.801705
10721 3216       57.7456                -2.801653
10737 3220.8     57.8233                -2.79972
10753 3225.6     57.9152                -2.799733
10769 3230.4     57.9963                -2.80027
10785 3235.2     58.07252                 -2.80048
10801 3240       58.1639                -2.803594
10817 3244.8     58.2478                -2.800741
10833 3249.6     58.33585                 -2.799172
10849 3254.4     58.4117                -2.798303
10865 3259.2     58.4842                -2.796054
10881 3264       58.5731                -2.794762
10897 3268.8     58.659                -2.795363
10913 3273.6     58.7515                -2.793798
10929 3278.4     58.8306                -2.794605
10945 3283.2     58.90556                 -2.794547
10961 3288       58.993                -2.793149
10977 3292.8     59.0804                -2.795812
10993 3297.6     59.168                -2.792529
11009 3302.4     59.2381                -2.792536
11025 3307.2     59.3186                -2.794028
11041 3312       59.4039                -2.792571
11057 3316.8     59.4932                -2.793995
11073 3321.6     59.5832                -2.7941
11089 3326.4     59.6555                -2.796868
11105 3331.2     59.73598                 -2.796043
11121 3336       59.8252                -2.796764
11137 3340.8     59.9108                -2.798059
11153 3345.6     60.0016                -2.796147
11169 3350.4     60.0726                -2.7942
11185 3355.2     60.15165                 -2.793815
11201 3360       60.2345                  -2.794772
11217 3364.8     60.3236                -2.795277
11233 3369.6     60.4167                -2.794199
11249 3374.4     60.49367                 -2.796469
11265 3379.2     60.5679                -2.796213
11281 3384       60.6547                -2.796515
11297 3388.8     60.7431                -2.795923
11313 3393.6     60.8302                -2.796015
11329 3398.4     60.9061                -2.79479
11345 3403.2     60.9821                -2.793724
11361 3408       61.0667                -2.794436
11377 3412.8     61.1585                -2.793897
11393 3417.6     61.24                -2.794947
11409 3422.4     61.3187                -2.794164
11425 3427.2     61.4025                -2.794793
11441 3432       61.4851                -2.793511
11457 3436.8     61.5764                -2.793055
11473 3441.6     61.6548                -2.791111
11489 3446.4     61.731                -2.788207
11505 3451.2     61.8195                -2.789057
11521 3456       61.8972                -2.789139
11537 3460.8     61.9908                -2.79032
11553 3465.6     62.0754                -2.789897
11569 3470.4     62.1489                -2.791376
11585 3475.2     62.2362                -2.790459
11601 3480       62.3182                -2.792082
11617 3484.8     62.4073                -2.789493
11633 3489.6     62.4889                -2.790182
11649 3494.4     62.561                -2.791393
11665 3499.2     62.6516                -2.794138
11681 3504       62.7313                -2.795354
11697 3508.8     62.823                -2.793586
11713 3513.6     62.9017                -2.795582
11729 3518.4     62.9759                -2.79657
11745 3523.2     63.0694                -2.79768
11761 3528       63.1561                -2.794643
11777 3532.8     63.2417                -2.793666
11793 3537.6     63.3164                -2.793557
11809 3542.4     63.3925                -2.793497
11825 3547.2     63.4788                -2.794635
11841 3552       63.5661                -2.794038
11857 3556.8     63.6597                -2.793002
11873 3561.6     63.7354                -2.792855
11889 3566.4     63.8101                -2.794864
11905 3571.2     63.8978                -2.794404
11921 3576       63.9857                -2.791944
11937 3580.8     64.075                -2.792181
11953 3585.6     64.1445                -2.792905
11969 3590.4     64.2229                -2.793484
11985 3595.2     64.3103                -2.793142
12001 3600       64.3989                -2.794844
12017 3604.8     64.4882                -2.793776
12033 3609.6     64.5599                -2.792077
12049 3614.4     64.6401                -2.79139
12065 3619.2     64.7302                -2.791395
12081 3624       64.814                -2.792272
12097 3628.8     64.9008                -2.790538
12113 3633.6     64.9759                -2.791423
12129 3638.4     65.0563                -2.791195
12145 3643.2     65.1423                -2.78978
12161 3648       65.2309                -2.790466
12177 3652.8     65.31989                 -2.790624
12193 3657.6     65.3965                -2.791523
12209 3662.4     65.4746                -2.793243
12225 3667.2     65.561                -2.792454
12241 3672       65.6476                -2.792084
12257 3676.8     65.7302                -2.793213
12273 3681.6     65.8096                -2.794063
12289 3686.4     65.8903                -2.797567
12305 3691.2     65.9711                -2.795947
12321 3696       66.0637                -2.798356
12337 3700.8     66.1451                -2.796437
12353 3705.6     66.2247                -2.79975
12369 3710.4     66.3095                -2.800056
12385 3715.2     66.39                -2.798774
12401 3720       66.4817                -2.798463
12417 3724.8     66.5655                -2.796983
12433 3729.6     66.6381                -2.794635
12449 3734.4     66.7222                -2.795047
12465 3739.2     66.8025                -2.794946
12481 3744       66.8974                -2.796955
12497 3748.8     66.983                -2.796938
12513 3753.6     67.0533                -2.796058
12529 3758.4     67.143                -2.798429
12545 3763.2     67.22514                 -2.795967
12561 3768       67.3137                -2.795652
12577 3772.8     67.3907                -2.798111
12593 3777.6     67.4664                -2.796379
12609 3782.4     67.558                -2.797172
12625 3787.2     67.6349                -2.797945
12641 3792       67.7264                -2.797152
12657 3796.8     67.8052                -2.795672
12673 3801.6     67.881                -2.794728
12689 3806.4     67.9751                -2.794205
12705 3811.2     68.0587                -2.795266
12721 3816       68.147                -2.791978
12737 3820.8     68.21949                 -2.792514
12753 3825.6     68.2952                -2.793003
12769 3830.4     68.3856                -2.791067
12785 3835.2     68.473                -2.79226
12801 3840       68.5623                -2.792151
12817 3844.8     68.638                -2.791356
12833 3849.6     68.7146                -2.793295
12849 3854.4     68.8049                -2.795013
12865 3859.2     68.89302                 -2.794845
12881 3864       68.9788                -2.794823
12897 3868.8     69.0527                -2.795111
12913 3873.6     69.1306                -2.797761
12929 3878.4     69.2168                -2.796415
12945 3883.2     69.3042                -2.796462
12961 3888       69.3938                -2.796164
12977 3892.8     69.4653                -2.798793
12993 3897.6     69.5458                -2.796724
13009 3902.4     69.6376                -2.796232
13025 3907.2     69.7237                -2.795351
13041 3912       69.8119                -2.793754
13057 3916.8     69.8827                  -2.790005
13073 3921.6     69.9618                -2.79215
13089 3926.4     70.0475                -2.790302
13105 3931.2     70.1351                -2.793118
13121 3936       70.228                   -2.791991
13137 3940.8     70.3018                -2.794922
13153 3945.6     70.3795                -2.793136
13169 3950.4     70.4678                -2.795345
13185 3955.2     70.5529                -2.789886
13201 3960       70.637                -2.788971
13217 3964.8     70.71391                 -2.789622
13233 3969.6     70.7951                -2.790139
13249 3974.4     70.8779                -2.786025
13265 3979.2     70.9675                -2.785861
13281 3984       71.0515                  -2.787679
13297 3988.8     71.1287                -2.786276
13313 3993.6     71.2109                -2.783744
13329 3998.4     71.298                -2.784216
13345 4003.2     71.3865                -2.783381
13361 4008       71.4653                -2.781675
13377 4012.8     71.5419                -2.783899
13393 4017.6     71.6284                -2.780815
13409 4022.4     71.70904                 -2.781597
13425 4027.2     71.803                -2.778796
13441 4032       71.8869                -2.78061
13457 4036.8     71.9619                -2.78171
13473 4041.6     72.0457                -2.7826
13489 4046.4     72.1261                -2.780261
13505 4051.2     72.2189                -2.780644
13521 4056       72.2975                -2.776499
13537 4060.8     72.3737                -2.7789
13553 4065.6     72.4627                -2.775481
13569 4070.4     72.5383                -2.778265
13585 4075.2     72.6322                -2.779956
13601 4080       72.7131                -2.781371
13617 4084.8     72.78745                 -2.779707
13633 4089.6     72.8811                -2.778489
13649 4094.4     72.9638                -2.778475
13665 4099.2     73.0509                -2.778756
13681 4104       73.1302                -2.77812
13697 4108.8     73.2042                -2.775508
13713 4113.6     73.2916                -2.774465
13729 4118.4     73.3762                -2.775845
13745 4123.2     73.4673                -2.774802
13761 4128       73.5475                -2.77546
13777 4132.8     73.6196                -2.775674
13793 4137.6     73.7103                -2.779728
13809 4142.4     73.7956                -2.77759
13825 4147.2     73.8843                -2.777585
13841 4152       73.9589                -2.777195
13857 4156.8     74.0362                -2.778918
13873 4161.6     74.1215                -2.782564
13889 4166.4     74.2078                -2.780139
13905 4171.2     74.2994                -2.778316
13921 4176       74.3719                -2.780666
13937 4180.8     74.4499                -2.781973
13953 4185.6     74.5413                -2.781608
13969 4190.4     74.6304                -2.781018
13985 4195.2     74.7156                -2.778482
14001 4200       74.7838                -2.779588
14017 4204.8     74.8631                -2.77751
14033 4209.6     74.9523                -2.776236
14049 4214.4     75.0429                -2.775307
14065 4219.2     75.1356                -2.77642
14081 4224       75.2053                -2.773197
14097 4228.8     75.2832                -2.773036
14113 4233.6     75.3711                -2.775846
14129 4238.4     75.4562                -2.772509
14145 4243.2     75.5495                -2.774347
14161 4248       75.6238                -2.772956
14177 4252.8     75.7                -2.777026
14193 4257.6     75.7834                -2.778199
14209 4262.4     75.8716                -2.777824
14225 4267.2     75.9608                -2.778362
14241 4272       76.0347                -2.778796
14257 4276.8     76.1146                -2.778626
14273 4281.6     76.2032                -2.781711
14289 4286.4     76.292                -2.779831
14305 4291.2     76.3775                -2.779857
14321 4296       76.4524                -2.781823
14337 4300.8     76.5304                -2.781283
14353 4305.6     76.6141                -2.781103
14369 4310.4     76.7044                -2.782806
14385 4315.2     76.7925                -2.783965
14401 4320       76.8706                -2.785861
14417 4324.8     76.9465                -2.78781
14433 4329.6     77.032                -2.787539
14449 4334.4     77.1248                -2.785916
14465 4339.2     77.2082                -2.789302
14481 4344       77.2831                -2.788059
14497 4348.8     77.3632                -2.78956
14513 4353.6     77.4445                -2.788989
14529 4358.4     77.5372                -2.789302
14545 4363.2     77.619                -2.789755
14561 4368       77.6951                  -2.788176
14577 4372.8     77.7819                -2.788842
14593 4377.6     77.8665                -2.785871
14609 4382.4     77.9549                -2.785312
14625 4387.2     78.032                -2.785262
14641 4392       78.1092                -2.784989
14657 4396.8     78.1973                -2.787231
14673 4401.6     78.2766                -2.78947
14689 4406.4     78.3703                -2.788767
14705 4411.2     78.454                   -2.788568
14721 4416       78.52656                 -2.788508
14737 4420.8     78.6149                -2.791258
14753 4425.6     78.6994                -2.791289
14769 4430.4     78.7848                -2.789798
14785 4435.2     78.8638                -2.787163
14801 4440       78.9405                -2.786732
14817 4444.8     79.03                -2.789112
14833 4449.6     79.1112                -2.791519
14849 4454.4     79.2026                -2.793979
14865 4459.2     79.278                -2.790199
14881 4464       79.3524                -2.791307
14897 4468.8     79.4491                -2.791283
14913 4473.6     79.5327                -2.792065
14929 4478.4     79.618                -2.789949
14945 4483.2     79.6968                -2.789136
14961 4488       79.7694                -2.789316
14977 4492.8     79.8599                -2.789988
14993 4497.6     79.9456                -2.788746
15001 4500       79.9898                -2.789117