File: rawdata/SM_LPS_in_H2O_c3.txt
SM_LPS_in_H2O
Creation Date : 12/20/2018 2:24:36 PM
User : PSCM

HeatFlow :
 Initial Mass : 497 mg
 Molar Mass : N/A

Index Time (s)   Furnace Temperature (Â°C) HeatFlow (mW)
1     0          82.8761                -0.219553
16    4.5        82.8388                -0.20878
31    9          83.2214                -0.202156
46    13.5       83.8561                -0.199829
61    18         84.2676                -0.204465
76    22.5       84.4857                -0.214346
91    27         84.4823                -0.226684
106   31.5       84.4262                -0.240369
121   36         84.4465                -0.258567
136   40.5       84.4481                -0.277068
151   45         84.4115                -0.295506
166   49.5       84.3837                -0.313698
181   54         84.33474                 -0.331207
196   58.5       84.3071                -0.346417
211   63         84.2604                -0.360741
226   67.5       84.2026                -0.371445
241   72         84.1421                -0.38122
256   76.5       84.0782                -0.387161
271   81         84.0241                -0.391442
286   85.5       83.9656                -0.393005
301   90         83.8925                -0.394065
316   94.5       83.8287                -0.393104
331   99         83.7599                -0.388308
346   103.5      83.6915                -0.380249
361   108        83.62749                 -0.371474
376   112.5      83.5561                -0.361528
391   117        83.4881                -0.349798
406   121.5      83.4139                -0.334963
421   126        83.34                -0.319713
436   130.5      83.2693                -0.303777
451   135        83.1963                -0.285702
466   139.5      83.1235                -0.267039
481   144        83.0489                -0.247817
496   148.5      82.9743                -0.226946
511   153        82.90026                 -0.207943
526   157.5      82.8254                -0.186253
541   162        82.75                -0.165529
556   166.5      82.6882                -0.143403
571   171        82.6846                -0.120761
586   175.5      82.6462                -0.099175
601   180        82.5661                -0.075452
616   184.5      82.4761                -0.052863
631   189        82.395                -0.033277
646   193.5      82.3276                -0.011592
661   198        82.2648                0.010671
676   202.5      82.1844                0.030279
691   207        82.10438                 0.052342
706   211.5      82.0287                0.073318
721   216        81.9506                0.093805
736   220.5      81.8783                0.111951
751   225        81.793                0.131994
766   229.5      81.7113                0.149709
781   234        81.6335                0.168225
796   238.5      81.5579                0.187842
811   243        81.4847                0.203885
826   247.5      81.3949                0.220047
841   252        81.3141                0.232433
856   256.5      81.2405                0.248915
871   261        81.1638                0.260778
886   265.5      81.0834                0.272396
901   270        81.00249                 0.289734
916   274.5      80.9142                0.302092
931   279        80.8364                0.316772
946   283.5      80.7562                0.328578
961   288        80.681                0.339989
976   292.5      80.6048                0.347855
991   297        80.5148                0.359183
1006  301.5      80.4418                0.370946
1021  306        80.3576                0.37947
1036  310.5      80.2811                0.388817
1051  315        80.2047                0.396523
1066  319.5      80.1162                0.406083
1081  324        80.0386                0.415065
1096  328.5      79.95039                 0.42134
1111  333        79.8802                0.431074
1126  337.5      79.8008                0.440064
1141  342        79.7165                0.445269
1156  346.5      79.6361                0.451067
1171  351        79.5582                0.456773
1186  355.5      79.4802                0.463435
1201  360        79.4048                0.470356
1216  364.5      79.3164                0.47708
1231  369        79.2345                0.482571
1246  373.5      79.15436                 0.487757
1261  378        79.0808                0.495654
1276  382.5      79.0096                0.498201
1291  387        78.9242                0.501317
1306  391.5      78.8377                0.506236
1321  396        78.7632                0.512564
1336  400.5      78.6867                0.514973
1351  405        78.6117                0.518402
1366  409.5      78.527                0.523982
1381  414        78.4412                0.525173
1396  418.5      78.3603                0.527051
1411  423        78.2859                0.531936
1426  427.5      78.2106                0.535366
1441  432        78.1283                0.535067
1456  436.5      78.0445                0.534891
1471  441        77.97278                 0.539101
1486  445.5      77.89256                 0.541843
1501  450        77.815                0.543162
1516  454.5      77.7404                0.543688
1531  459        77.6524                0.545222
1546  463.5      77.57667                 0.546942
1561  468        77.4903                0.549563
1576  472.5      77.4188                0.553323
1591  477        77.3469                0.554058
1606  481.5      77.2623                0.553874
1621  486        77.1798                0.553222
1636  490.5      77.10038                 0.559219
1651  495        77.0264                0.558334
1666  499.5      76.9538                0.560502
1681  504        76.867                0.562587
1696  508.5      76.7847                0.562443
1711  513        76.7039                0.560414
1726  517.5      76.633                0.56146
1741  522        76.5594                0.56145
1756  526.5      76.47152                 0.562677
1771  531        76.389                0.562686
1786  535.5      76.3181                0.566185
1801  540        76.2423                0.564577
1816  544.5      76.1647                0.564402
1831  549        76.0791                0.566046
1846  553.5      75.9954                  0.565934
1861  558        75.9214                0.566226
1876  562.5      75.8417                0.566518
1891  567        75.7702                0.565043
1906  571.5      75.6958                0.563775
1921  576        75.6116                0.566514
1936  580.5      75.5323                0.565334
1951  585        75.4528                0.565124
1966  589.5      75.3776                0.56494
1981  594        75.3033                0.565592
1996  598.5      75.2197                0.566861
2011  603        75.1383                0.563661
2026  607.5      75.057                0.566244
2041  612        74.9814                0.565501
2056  616.5      74.9136                0.56878
2071  621        74.8245                0.568518
2086  625.5      74.743                0.566975
2101  630        74.6729                0.565775
2116  634.5      74.597                0.566725
2131  639        74.5207                0.564124
2146  643.5      74.4395                0.565073
2161  648        74.35393                 0.567447
2176  652.5      74.2788                0.568016
2191  657        74.1998                0.566756
2206  661.5      74.1272                0.566666
2221  666        74.0529                0.566878
2236  670.5      73.9669                0.567936
2251  675        73.8909                0.566207
2266  679.5      73.8087                0.564849
2281  684        73.7366                0.56568
2296  688.5      73.6603                0.568689
2311  693        73.575                0.565479
2326  697.5      73.4945                0.563011
2341  702        73.4146                0.564586
2356  706.5      73.3416                0.564808
2371  711        73.27103                 0.562995
2386  715.5      73.1836                0.562159
2401  720        73.1013                0.561214
2416  724.5      73.0307                0.558703
2431  729        72.9556                0.557587
2446  733.5      72.8776                0.55765
2461  738        72.794                0.559631
2476  742.5      72.7098                0.557911
2491  747        72.6383                0.558281
2506  751.5      72.5583                0.556845
2521  756        72.4867                0.558599
2536  760.5      72.41079                 0.561465
2551  765        72.3222                0.560463
2566  769.5      72.2491                0.562538
2581  774        72.1699                0.560622
2596  778.5      72.095                0.557049
2611  783        72.0241                0.56151
2626  787.5      71.9398                0.562085
2641  792        71.8552                0.560205
2656  796.5      71.7739                0.559072
2671  801        71.7006                0.559057
2686  805.5      71.6312                0.560897
2701  810        71.5438                0.55982
2716  814.5      71.4628                0.559039
2731  819        71.39001                 0.558456
2746  823.5      71.3163                0.560231
2761  828        71.238                0.558545
2776  832.5      71.1592                0.558925
2791  837        71.0727                0.556996
2806  841.5      70.9994                0.558275
2821  846        70.9197                0.55929
2836  850.5      70.8473                0.558814
2851  855        70.772                0.559275
2866  859.5      70.686                0.559355
2881  864        70.6113                0.558287
2896  868.5      70.5299                0.558266
2911  873        70.4561                0.558119
2926  877.5      70.384                0.558522
2941  882        70.29988                 0.556189
2956  886.5      70.2164                0.556914
2971  891        70.1365                0.559526
2986  895.5      70.062                0.556204
3001  900        69.9917                0.555635
3016  904.5      69.90582                 0.55593
3031  909        69.82389                 0.555664
3046  913.5      69.7523                0.553737
3061  918        69.6773                0.555889
3076  922.5      69.6009                0.55453
3091  927        69.514                0.556144
3106  931.5      69.4311                0.555446
3121  936        69.359                0.554383
3136  940.5      69.281                0.555069
3151  945        69.2071                0.557782
3166  949.5      69.1329                0.557228
3181  954        69.0477                0.555065
3196  958.5      68.9727                0.555207
3211  963        68.8906                0.556864
3226  967.5      68.8173                0.556521
3241  972        68.7417                0.557164
3256  976.5      68.658                0.559414
3271  981        68.5768                0.556203
3286  985.5      68.49618                 0.555382
3301  990        68.4241                0.554013
3316  994.5      68.3545                0.554793
3331  999        68.2666                0.554033
3346  1003.5     68.1876                0.553955
3361  1008       68.1144                0.553652
3376  1012.5     68.039                0.552131
3391  1017       67.9615                0.55074
3406  1021.5     67.8828                0.549711
3421  1026       67.7964                0.552451
3436  1030.5     67.7222                0.552526
3451  1035       67.64303                 0.551037
3466  1039.5     67.5693                0.551687
3481  1044       67.4963                0.553512
3496  1048.5     67.4095                0.552126
3511  1053       67.3368                0.550639
3526  1057.5     67.2548                0.551712
3541  1062       67.1799                  0.551066
3556  1066.5     67.1072                0.551255
3571  1071       67.0227                0.550789
3586  1075.5     66.9409                0.547242
3601  1080       66.8592                0.548357
3616  1084.5     66.7855                0.547255
3631  1089       66.7178                0.549186
3646  1093.5     66.6296                0.547674
3661  1098       66.5493                0.547745
3676  1102.5     66.4756                0.547527
3691  1107       66.4022                0.545466
3706  1111.5     66.3255                0.545311
3721  1116       66.2387                0.545743
3736  1120.5     66.15623                 0.545381
3751  1125       66.0824                0.54799
3766  1129.5     66.0054                0.549453
3781  1134       65.93168                 0.548124
3796  1138.5     65.8583                0.547278
3811  1143       65.7712                0.547826
3826  1147.5     65.6996                0.546994
3841  1152       65.6167                0.54728
3856  1156.5     65.5419                0.549263
3871  1161       65.4703                0.549789
3886  1165.5     65.38521                 0.55006
3901  1170       65.3042                0.549343
3916  1174.5     65.2225                0.548946
3931  1179       65.1483                  0.54813
3946  1183.5     65.0782                0.548469
3961  1188       64.9919                0.548192
3976  1192.5     64.9129                0.549803
3991  1197       64.8385                0.549825
4006  1201.5     64.7635                0.549951
4021  1206       64.6883                0.549031
4036  1210.5     64.6085                0.549943
4051  1215       64.5215                0.550373
4066  1219.5     64.44743                 0.54899
4081  1224       64.3686                0.55087
4096  1228.5     64.2947                0.549114
4111  1233       64.2203                0.550163
4126  1237.5     64.1322                0.550928
4141  1242       64.0626                0.550522
4156  1246.5     63.978                0.548
4171  1251       63.9056                0.549308
4186  1255.5     63.832                0.548895
4201  1260       63.74898                 0.547475
4216  1264.5     63.6675                0.547536
4231  1269       63.5841                0.54651
4246  1273.5     63.5101                0.546328
4261  1278       63.44004                 0.546829
4276  1282.5     63.3564                0.547767
4291  1287       63.2758                0.546338
4306  1291.5     63.2017                0.546965
4321  1296       63.1278                0.546039
4336  1300.5     63.0516                0.547579
4351  1305       62.9627                0.546669
4366  1309.5     62.8821                0.544989
4381  1314       62.807                0.54827
4396  1318.5     62.7324                0.546413
4411  1323       62.6584                0.549205
4426  1327.5     62.5843                0.549551
4441  1332       62.4952                0.548754
4456  1336.5     62.4245                0.550575
4471  1341       62.3414                0.550272
4486  1345.5     62.26836                 0.550563
4501  1350       62.1894                0.551145
4516  1354.5     62.1093                0.550578
4531  1359       62.0295                0.551618
4546  1363.5     61.94515                 0.553181
4561  1368       61.8742                0.552489
4576  1372.5     61.8057                0.551757
4591  1377       61.7186                0.549924
4606  1381.5     61.6367                0.551192
4621  1386       61.56472                 0.552311
4636  1390.5     61.4901                0.552337
4651  1395       61.4164                0.551121
4666  1399.5     61.3312                0.548796
4681  1404       61.2493                0.547153
4696  1408.5     61.17149                 0.547953
4711  1413       61.0959                0.549213
4726  1417.5     61.02013                 0.55031
4741  1422       60.94566                 0.551422
4756  1426.5     60.8597                0.547938
4771  1431       60.7876                0.548373
4786  1435.5     60.7049                0.546991
4801  1440       60.631                0.549291
4816  1444.5     60.5526                0.548502
4831  1449       60.4719                0.548081
4846  1453.5     60.3952                0.545979
4861  1458       60.3108                0.543949
4876  1462.5     60.2368                0.544253
4891  1467       60.1645                0.543576
4906  1471.5     60.0835                0.541169
4921  1476       60.0016                0.541431
4936  1480.5     59.9259                0.543598
4951  1485       59.8534                0.542191
4966  1489.5     59.7808                0.54076
4981  1494       59.6896                0.539135
4996  1498.5     59.6089                0.540977
5011  1503       59.5318                0.542345
5026  1507.5     59.4597                0.537968
5041  1512       59.3857                0.540527
5056  1516.5     59.3082                0.539378
5071  1521       59.2224                0.541061
5086  1525.5     59.1506                0.542009
5101  1530       59.0691                0.543134
5116  1534.5     58.9975                0.543575
5131  1539       58.9232                0.54358
5146  1543.5     58.8351                0.542821
5161  1548       58.7602                0.542648
5176  1552.5     58.6738                0.541171
5191  1557       58.6032                0.541099
5206  1561.5     58.5271                0.537834
5221  1566       58.4437                0.538473
5236  1570.5     58.3633                0.539541
5251  1575       58.2925                0.53998
5266  1579.5     58.2169                0.539827
5281  1584       58.144                0.538268
5296  1588.5     58.0576                0.539428
5311  1593       57.97642                 0.539508
5326  1597.5     57.8957                0.540641
5341  1602       57.8224                0.538331
5356  1606.5     57.7486                0.540675
5371  1611       57.672                0.540105
5386  1615.5     57.5861                0.537988
5401  1620       57.5158                0.538543
5416  1624.5     57.4333                0.536732
5431  1629       57.3594                0.535776
5446  1633.5     57.2794                0.53534
5461  1638       57.1965                0.536519
5476  1642.5     57.1236                0.534215
5491  1647       57.0366                0.533692
5506  1651.5     56.9675                0.532384
5521  1656       56.8908                0.533672
5536  1660.5     56.8064                0.532162
5551  1665       56.7284                0.531756
5566  1669.5     56.652                0.53008
5581  1674       56.5776                0.529042
5596  1678.5     56.5046                0.530475
5611  1683       56.4181                0.530629
5626  1687.5     56.3376                0.529652
5641  1692       56.259                0.531389
5656  1696.5     56.1865                0.533057
5671  1701       56.1127                0.532513
5686  1705.5     56.032                0.531678
5701  1710       55.9494                0.535872
5716  1714.5     55.8784                0.536639
5731  1719       55.7998                0.538212
5746  1723.5     55.7243                0.539902
5761  1728       55.6417                0.542233
5776  1732.5     55.5538                0.540527
5791  1737       55.4844                0.541175
5806  1741.5     55.4017                0.5446
5821  1746       55.3302                0.544078
5836  1750.5     55.2534                0.544049
5851  1755       55.17065                 0.54401
5866  1759.5     55.0939                0.544416
5881  1764       55.0162                0.544564
5896  1768.5     54.9393                0.54391
5911  1773       54.8713                0.545309
5926  1777.5     54.7866                0.545018
5941  1782       54.7049                0.54698
5956  1786.5     54.6243                0.544403
5971  1791       54.5501                0.54622
5986  1795.5     54.47835                 0.546903
6001  1800       54.3974                0.546463
6016  1804.5     54.3132                0.547106
6031  1809       54.2418                0.546033
6046  1813.5     54.1633                0.546803
6061  1818       54.0865                0.547769
6076  1822.5     54.0097                0.547672
6091  1827       53.92431                 0.546608
6106  1831.5     53.8492                0.548147
6121  1836       53.7663                0.549183
6136  1840.5     53.6954                0.548094
6151  1845       53.6143                0.545927
6166  1849.5     53.5345                0.546129
6181  1854       53.4596                0.546631
6196  1858.5     53.3805                0.544379
6211  1863       53.3073                0.546327
6226  1867.5     53.23                0.545807
6241  1872       53.1478                0.548135
6256  1876.5     53.0656                0.546981
6271  1881       52.9843                0.546173
6286  1885.5     52.9113                0.547589
6301  1890       52.8424                0.548325
6316  1894.5     52.7612                0.548723
6331  1899       52.6776                0.549557
6346  1903.5     52.6047                0.548403
6361  1908       52.5287                0.548859
6376  1912.5     52.4515                0.55068
6391  1917       52.3728                0.549663
6406  1921.5     52.288                0.549372
6421  1926       52.2123                0.550068
6436  1930.5     52.1321                0.549531
6451  1935       52.0598                0.552939
6466  1939.5     51.9793                0.54972
6481  1944       51.895                0.549256
6496  1948.5     51.8255                0.549159
6511  1953       51.7446                0.551115
6526  1957.5     51.6706                0.549151
6541  1962       51.5999                0.548425
6556  1966.5     51.5147                0.549414
6571  1971       51.4334                0.55046
6586  1975.5     51.3507                0.549866
6601  1980       51.2759                0.552519
6616  1984.5     51.2091                0.552691
6631  1989       51.1254                0.551701
6646  1993.5     51.0442                0.551218
6661  1998       50.9708                0.552224
6676  2002.5     50.8944                0.552431
6691  2007       50.8173                0.550606
6706  2011.5     50.73757                 0.552439
6721  2016       50.6531                0.552165
6736  2020.5     50.5751                0.550049
6751  2025       50.498                0.549926
6766  2029.5     50.4255                0.550075
6781  2034       50.3444                0.54885
6796  2038.5     50.2587                0.549613
6811  2043       50.1919                0.550336
6826  2047.5     50.10942                 0.549161
6841  2052       50.0364                0.547193
6856  2056.5     49.9582                0.54914
6871  2061       49.87413                 0.548085
6886  2065.5     49.7988                0.551208
6901  2070       49.71376                 0.550335
6916  2074.5     49.6416                0.550406
6931  2079       49.5745                0.551901
6946  2083.5     49.491                0.552225
6961  2088       49.4093                0.55007
6976  2092.5     49.3336                0.549893
6991  2097       49.25765                 0.5523
7006  2101.5     49.1849                0.551211
7021  2106       49.0973                0.552858
7036  2110.5     49.0161                0.554169
7051  2115       48.9375                0.55359
7066  2119.5     48.8632                0.551644
7081  2124       48.7906                0.553397
7096  2128.5     48.70761                 0.552767
7111  2133       48.6259                0.55123
7126  2137.5     48.5565                0.551004
7141  2142       48.4765                  0.550727
7156  2146.5     48.402                0.550088
7171  2151       48.3253                0.549832
7186  2155.5     48.24056                 0.549396
7201  2160       48.1665                0.548219
7216  2164.5     48.0799                0.550049
7231  2169       48.0099                0.552136
7246  2173.5     47.93996                 0.551365
7261  2178       47.8578                0.547488
7276  2182.5     47.7729                0.548709
7291  2187       47.6973                0.548087
7306  2191.5     47.6218                0.547944
7321  2196       47.5495                0.547457
7336  2200.5     47.4626                0.547713
7351  2205       47.3814                0.545693
7366  2209.5     47.3035                0.547423
7381  2214       47.2298                0.54718
7396  2218.5     47.1552                0.54659
7411  2223       47.0734                0.548012
7426  2227.5     46.9913                0.547882
7441  2232       46.92056                 0.546425
7456  2236.5     46.8421                0.547339
7471  2241       46.767                0.545085
7486  2245.5     46.68454                 0.545166
7501  2250       46.5999                  0.548116
7516  2254.5     46.5299                0.544823
7531  2259       46.4441                0.546801
7546  2263.5     46.3724                0.548215
7561  2268       46.3025                0.548876
7576  2272.5     46.2196                0.546814
7591  2277       46.1396                0.54914
7606  2281.5     46.0611                0.550498
7621  2286       45.9853                0.549401
7636  2290.5     45.9158                0.549577
7651  2295       45.8302                0.551636
7666  2299.5     45.7496                0.551186
7681  2304       45.6679                0.551624
7696  2308.5     45.5946                0.551065
7711  2313       45.5217                0.551422
7726  2317.5     45.434                0.551292
7741  2322       45.3547                0.552029
7756  2326.5     45.285                0.552107
7771  2331       45.2084                0.552066
7786  2335.5     45.132                0.552943
7801  2340       45.05259                 0.550945
7816  2344.5     44.968                0.55175
7831  2349       44.8946                0.553954
7846  2353.5     44.8116                0.55357
7861  2358       44.7373                0.554704
7876  2362.5     44.6649                0.553341
7891  2367       44.5827                0.554086
7906  2371.5     44.5054                0.553557
7921  2376       44.4257                0.552382
7936  2380.5     44.35191                 0.551525
7951  2385       44.282                0.555892
7966  2389.5     44.1935                0.553383
7981  2394       44.1125                0.553147
7996  2398.5     44.0308                0.552697
8011  2403       43.9562                0.550416
8026  2407.5     43.8866                0.552521
8041  2412       43.8012                0.550103
8056  2416.5     43.7212                0.550131
8071  2421       43.6477                0.55095
8086  2425.5     43.57178                 0.5508
8101  2430       43.4956                0.549379
8116  2434.5     43.4104                0.548199
8131  2439       43.3305                0.549562
8146  2443.5     43.2536                0.548463
8161  2448       43.1774                0.549038
8176  2452.5     43.1016                  0.549802
8191  2457       43.02631                 0.548125
8206  2461.5     42.9437                0.548762
8221  2466       42.8705                0.5509
8236  2470.5     42.7882                0.54933
8251  2475       42.7144                0.55047
8266  2479.5     42.6367                0.551757
8281  2484       42.5535                0.553155
8296  2488.5     42.4783                0.550704
8311  2493       42.392                0.551237
8326  2497.5     42.31974                 0.551357
8341  2502       42.2494                0.551649
8356  2506.5     42.1653                0.55236
8371  2511       42.0846                0.549771
8386  2515.5     42.0092                0.54978
8401  2520       41.9342                0.551636
8416  2524.5     41.8615                0.55166
8431  2529       41.7791                0.549194
8446  2533.5     41.697                0.550897
8461  2538       41.6169                0.550932
8476  2542.5     41.5429                0.55026
8491  2547       41.4671                0.551368
8506  2551.5     41.39019                 0.550516
8521  2556       41.3059                0.550718
8536  2560.5     41.23727                 0.550488
8551  2565       41.1555                0.550837
8566  2569.5     41.0807                0.550895
8581  2574       41.0052                0.551002
8596  2578.5     40.9208                0.549927
8611  2583       40.84389                 0.551331
8626  2587.5     40.7574                0.551198
8641  2592       40.686                0.54952
8656  2596.5     40.6076                0.550127
8671  2601       40.5271                0.550369
8686  2605.5     40.4501                0.549146
8701  2610       40.3737                0.550755
8716  2614.5     40.29897                 0.549371
8731  2619       40.2264                0.55014
8746  2623.5     40.1399                0.551121
8761  2628       40.0583                0.548628
8776  2632.5     39.977                0.552781
8791  2637       39.906                0.55383
8806  2641.5     39.8352                0.553284
8821  2646       39.7537                0.552565
8836  2650.5     39.6722                0.552973
8851  2655       39.5997                0.55309
8866  2659.5     39.51896                 0.55319
8881  2664       39.4444                0.551656
8896  2668.5     39.3658                0.554709
8911  2673       39.2822                0.55264
8926  2677.5     39.2079                0.554318
8941  2682       39.12459                 0.554507
8956  2686.5     39.0521                0.556806
8971  2691       38.9725                0.55419
8986  2695.5     38.8877                0.55468
9001  2700       38.8165                0.554041
9016  2704.5     38.7358                0.553214
9031  2709       38.66302                 0.553618
9046  2713.5     38.5914                0.552987
9061  2718       38.5095                0.551456
9076  2722.5     38.4283                0.552861
9091  2727       38.3438                0.553506
9106  2731.5     38.2673                0.554055
9121  2736       38.2014                0.553833
9136  2740.5     38.1191                0.554091
9151  2745       38.0377                0.554182
9166  2749.5     37.964                0.554246
9181  2754       37.88668                 0.552677
9196  2758.5     37.8123                0.550963
9211  2763       37.7257                0.552682
9226  2767.5     37.6435                0.55112
9241  2772       37.5664                0.55055
9256  2776.5     37.4924                0.548976
9271  2781       37.41659                 0.550891
9286  2785.5     37.335                0.549557
9301  2790       37.251                0.549925
9316  2794.5     37.183                0.549824
9331  2799       37.10173                 0.548195
9346  2803.5     37.0282                0.547324
9361  2808       36.9484                0.546857
9376  2812.5     36.8645                0.547595
9391  2817       36.7897                0.548616
9406  2821.5     36.7044                0.549242
9421  2826       36.6351                0.550038
9436  2830.5     36.5661                0.549075
9451  2835       36.4817                0.548851
9466  2839.5     36.4008                0.54883
9481  2844       36.3243                0.549962
9496  2848.5     36.2481                0.549206
9511  2853       36.1757                0.548735
9526  2857.5     36.09                0.548779
9541  2862       36.0103                0.549098
9556  2866.5     35.9302                0.550595
9571  2871       35.8561                0.55061
9586  2875.5     35.7829                0.55054
9601  2880       35.698                0.549651
9616  2884.5     35.6179                0.548601
9631  2889       35.5475                0.54876
9646  2893.5     35.47                0.546779
9661  2898       35.3933                0.545008
9676  2902.5     35.3162                0.544942
9691  2907       35.2301                0.545472
9706  2911.5     35.1573                0.545476
9721  2916       35.0726                0.54598
9736  2920.5     35.0002                0.544362
9751  2925       34.92852                 0.545069
9766  2929.5     34.8463                0.545364
9781  2934       34.7681                0.547174
9796  2938.5     34.6888                0.545084
9811  2943       34.6139                0.544063
9826  2947.5     34.5415                0.543617
9841  2952       34.4573                0.542937
9856  2956.5     34.3759                0.542871
9871  2961       34.2938                0.5427
9886  2965.5     34.2193                0.543874
9901  2970       34.1478                0.541958
9916  2974.5     34.063                0.542958
9931  2979       33.9815                0.542084
9946  2983.5     33.9088                0.541552
9961  2988       33.8349                0.540696
9976  2992.5     33.7584                0.543043
9991  2997       33.6759                0.543633
10006 3001.5     33.5918                0.54497
10021 3006       33.518                0.544558
10036 3010.5     33.4401                0.543884
10051 3015       33.3659                0.54358
10066 3019.5     33.289                0.544989
10081 3024       33.2057                0.543599
10096 3028.5     33.1356                0.545184
10111 3033       33.0526                0.544377
10126 3037.5     32.9794                0.544733
10141 3042       32.9059                0.545159
10156 3046.5     32.8204                0.544574
10171 3051       32.7438                0.544558
10186 3055.5     32.6593                0.544456
10201 3060       32.5847                0.545454
10216 3064.5     32.5098                0.544165
10231 3069       32.4283                0.543935
10246 3073.5     32.3496                0.544085
10261 3078       32.2753                0.544065
10276 3082.5     32.2011                0.544511
10291 3087       32.12856                 0.545409
10306 3091.5     32.043                0.542638
10321 3096       31.9614                0.541903
10336 3100.5     31.881                0.542279
10351 3105       31.8069                0.544024
10366 3109.5     31.7324                0.543146
10381 3114       31.6553                0.543801
10396 3118.5     31.5728                0.542609
10411 3123       31.50228                 0.542551
10426 3127.5     31.4218                0.54236
10441 3132       31.3451                0.542868
10456 3136.5     31.2632                0.54237
10471 3141       31.178                0.543553
10486 3145.5     31.1055                0.541664
10501 3150       31.0226                0.540453
10516 3154.5     30.9499                0.539074
10531 3159       30.8736                0.540576
10546 3163.5     30.7906                0.539826
10561 3168       30.717                   0.540809
10576 3172.5     30.638                0.538422
10591 3177       30.5619                0.539239
10606 3181.5     30.49                0.539255
10621 3186       30.4033                0.538816
10636 3190.5     30.325                0.540242
10651 3195       30.243                0.53962
10666 3199.5     30.1686                0.538729
10681 3204       30.1012                0.538649
10696 3208.5     30.0178                0.541743
10711 3213       29.9371                0.53962
10726 3217.5     29.862                0.542118
10741 3222       29.7883                0.541643
10756 3226.5     29.71102                 0.541111
10771 3231       29.6275                0.541759
10786 3235.5     29.5467                0.54316
10801 3240       29.4678                0.54191
10816 3244.5     29.3911                0.541889
10831 3249       29.318                0.541741
10846 3253.5     29.2368                0.543122
10861 3258       29.1545                0.542808
10876 3262.5     29.08403                 0.542114
10891 3267       29.0023                0.542722
10906 3271.5     28.929                0.540401
10921 3276       28.8545                0.541173
10936 3280.5     28.7723                0.541839
10951 3285       28.69469                 0.541422
10966 3289.5     28.6091                0.542394
10981 3294       28.5353                0.543257
10996 3298.5     28.4687                0.542322
11011 3303       28.3864                0.541728
11026 3307.5     28.3053                0.542561
11041 3312       28.2269                0.542067
11056 3316.5     28.1522                0.542961
11071 3321       28.0795                0.543068
11086 3325.5     27.996                0.544952
11101 3330       27.91475                 0.544667
11116 3334.5     27.8339                0.544198
11131 3339       27.7615                0.544696
11146 3343.5     27.6866                0.544625
11161 3348       27.6021                0.543281
11176 3352.5     27.5194                0.543768
11191 3357       27.4496                0.543895
11206 3361.5     27.3729                0.544639
11221 3366       27.2968                0.544851
11236 3370.5     27.2151                0.544289
11251 3375       27.12984                 0.545071
11266 3379.5     27.0586                0.545363
11281 3384       26.9752                0.545178
11296 3388.5     26.9023                0.544513
11311 3393       26.8315                0.545518
11326 3397.5     26.7491                0.545914
11341 3402       26.6709                0.54708
11356 3406.5     26.5919                0.547059
11371 3411       26.5147                0.549342
11386 3415.5     26.4461                0.547641
11401 3420       26.36257                 0.550354
11416 3424.5     26.2792                0.549712
11431 3429       26.1959                0.548376
11446 3433.5     26.1222                0.54861
11461 3438       26.0518                0.550062
11476 3442.5     25.9666                0.549601
11491 3447       25.8875                0.549993
11506 3451.5     25.8132                0.548521
11521 3456       25.7395                0.549536
11536 3460.5     25.66332                 0.550285
11551 3465       25.5823                0.549448
11566 3469.5     25.5004                0.55062
11581 3474       25.42382                 0.550178
11596 3478.5     25.34533                 0.551037
11611 3483       25.2697                0.549193
11626 3487.5     25.19414                 0.548938
11641 3492       25.1088                0.549251
11656 3496.5     25.0393                0.550189
11671 3501       24.9566                0.548929
11686 3505.5     24.884                0.548912
11701 3510       24.8051                0.550162
11716 3514.5     24.7223                  0.549325
11731 3519       24.6471                0.548308
11746 3523.5     24.5601                0.548723
11761 3528       24.4884                0.549977
11776 3532.5     24.4131                0.549416
11791 3537       24.3316                0.549011
11806 3541.5     24.2533                0.548124
11821 3546       24.178                0.548352
11836 3550.5     24.1013                0.548167
11851 3555       24.0284                0.548434
11866 3559.5     23.9443                0.549575
11881 3564       23.8648                0.549225
11896 3568.5     23.7839                0.549839
11911 3573       23.7093                0.550406
11926 3577.5     23.6376                0.551915
11941 3582       23.5575                0.552013
11956 3586.5     23.4755                0.550437
11971 3591       23.40346                 0.551499
11986 3595.5     23.3273                0.551574
12001 3600       23.2526                0.551166
12016 3604.5     23.1689                0.551411
12031 3609       23.0837                0.552382
12046 3613.5     23.0123                0.553525
12061 3618       22.9278                0.551265
12076 3622.5     22.8568                0.552296
12091 3627       22.77693                 0.552177
12106 3631.5     22.6935                0.55243
12121 3636       22.6239                0.551979
12136 3640.5     22.5443                0.551231
12151 3645       22.47071                 0.551826
12166 3649.5     22.3978                0.550748
12181 3654       22.31502                 0.550006
12196 3658.5     22.2347                0.550215
12211 3663       22.1517                0.550832
12226 3667.5     22.0768                0.550329
12241 3672       22.0093                0.551671
12256 3676.5     21.9261                0.552232
12271 3681       21.8462                0.551719
12286 3685.5     21.77135                 0.550861
12301 3690       21.69454                 0.55155
12316 3694.5     21.6216                0.55099
12331 3699       21.53452                 0.552547
12346 3703.5     21.4539                0.551622
12361 3708       21.3749                0.552913
12376 3712.5     21.301                0.551106
12391 3717       21.2247                0.55187
12406 3721.5     21.1444                0.552364
12421 3726       21.0607                0.551556
12436 3730.5     20.9912                0.551917
12451 3735       20.9121                0.550179
12466 3739.5     20.8385                0.550865
12481 3744       20.7567                0.55019
12496 3748.5     20.6716                0.549425
12511 3753       20.6007                0.551221
12526 3757.5     20.5164                0.551576
12541 3762       20.4445                0.551819
12556 3766.5     20.3728                0.551871
12571 3771       20.2907                0.553144
12586 3775.5     20.2118                0.553537
12601 3780       20.1351                0.554765
12616 3784.5     20.0583                0.553485
12631 3789       19.9893                0.554249
12646 3793.5     19.9068                0.555039
12661 3798       19.8249                0.554716
12676 3802.5     19.7412                0.555165
12691 3807       19.666                0.554916
12706 3811.5     19.5955                0.554715
12721 3816       19.509                0.555047
12736 3820.5     19.4314                0.555221
12751 3825       19.3567                0.556054
12766 3829.5     19.2829                0.555532
12781 3834       19.2079                0.555775
12796 3838.5     19.12968                 0.556475
12811 3843       19.0446                0.556314
12826 3847.5     18.971                0.557535
12841 3852       18.89                0.557045
12856 3856.5     18.8152                0.558253
12871 3861       18.7392                0.556429
12886 3865.5     18.6556                0.557199
12901 3870       18.5851                0.557119
12916 3874.5     18.5023                0.558053
12931 3879       18.4303                0.557317
12946 3883.5     18.3578                0.557574
12961 3888       18.2753                0.557969
12976 3892.5     18.1967                0.559151
12991 3897       18.1107                0.558373
13006 3901.5     18.0364                0.557613
13021 3906       17.9617                0.557696
13036 3910.5     17.8797                0.557812
13051 3915       17.8001                0.556839
13066 3919.5     17.7242                0.556289
13081 3924       17.6491                0.557217
13096 3928.5     17.577                0.55775
13111 3933       17.49                0.557017
13126 3937.5     17.4115                0.558978
13141 3942       17.3334                0.556135
13156 3946.5     17.2576                0.556419
13171 3951       17.1842                0.557415
13186 3955.5     17.1068                0.556845
13201 3960       17.0241                0.558153
13216 3964.5     16.9532                0.55751
13231 3969       16.8753                0.557952
13246 3973.5     16.7986                0.558497
13261 3978       16.7165                0.558503
13276 3982.5     16.6337                0.558155
13291 3987       16.5608                0.557815
13306 3991.5     16.4787                0.558531
13321 3996       16.4041                0.558846
13336 4000.5     16.3274                0.559281
13351 4005       16.2441                0.559009
13366 4009.5     16.1706                0.559472
13381 4014       16.0901                0.559431
13396 4018.5     16.0154                0.560046
13411 4023       15.9462                0.560368
13426 4027.5     15.8647                0.559645
13441 4032       15.7853                0.55998
13456 4036.5     15.7013                0.559859
13471 4041       15.6244                0.56012
13486 4045.5     15.55921                 0.559449
13501 4050       15.4754                0.559124
13516 4054.5     15.3963                0.558589
13531 4059       15.32101                 0.559668
13546 4063.5     15.2465                0.558818
13561 4068       15.1708                0.559398
13576 4072.5     15.0921                0.559337
13591 4077       15.01                0.558844
13606 4081.5     14.9315                0.559389
13621 4086       14.8558                0.559649
13636 4090.5     14.7799                0.559419
13651 4095       14.697                0.559653
13666 4099.5     14.6152                0.559451
13681 4104       14.54695                 0.559122
13696 4108.5     14.465                0.55931
13711 4113       14.392                0.558699
13726 4117.5     14.3131                0.558576
13741 4122       14.2305                0.559959
13756 4126.5     14.1563                0.560189
13771 4131       14.0694                0.560495
13786 4135.5     13.9995                0.561214
13801 4140       13.9284                0.561626
13816 4144.5     13.84639                 0.561488
13831 4149       13.7667                0.562193
13846 4153.5     13.6915                0.561564
13861 4158       13.6145                0.562333
13876 4162.5     13.546                0.562555
13891 4167       13.46254                 0.562509
13906 4171.5     13.3833                0.56302
13921 4176       13.3037                0.561599
13936 4180.5     13.2288                0.562601
13951 4185       13.15546                 0.563475
13966 4189.5     13.06825                 0.562858
13981 4194       12.9889                0.563094
13996 4198.5     12.918                0.563352
14011 4203       12.8405                0.56303
14026 4207.5     12.7651                0.563193
14041 4212       12.6873                0.562836
14056 4216.5     12.6051                0.562685
14071 4221       12.53323                 0.562456
14086 4225.5     12.4496                0.563078
14101 4230       12.3766                0.564154
14116 4234.5     12.3024                0.563756
14131 4239       12.2207                0.564166
14146 4243.5     12.1473                0.564152
14161 4248       12.0681                0.564099
14176 4252.5     11.9937                0.564779
14191 4257       11.9217                0.563531
14206 4261.5     11.8373                0.565354
14221 4266       11.758                0.56451
14236 4270.5     11.6744                0.565822
14251 4275       11.6004                0.567158
14266 4279.5     11.5311                0.568005
14281 4284       11.44629                 0.569036
14296 4288.5     11.3666                0.568924
14311 4293       11.2941                0.569883
14326 4297.5     11.2208                0.571031
14341 4302       11.1458                0.572407
14356 4306.5     11.06305                 0.574219
14371 4311       10.9826                0.573917
14386 4315.5     10.9052                0.574865
14401 4320       10.8267                0.576356
14416 4324.5     10.7534                0.576466
14431 4329       10.6791                0.57829
14446 4333.5     10.5959                0.578832
14461 4338       10.528                0.579203
14476 4342.5     10.4456                0.578714
14491 4347       10.3742                0.579249
14506 4351.5     10.2957                0.579802
14521 4356       10.2171                0.579675
14536 4360.5     10.1406                  0.579106
14551 4365       10.0569                0.579105
14566 4369.5     9.984567                 0.578789
14581 4374       9.910444                 0.578063
14596 4378.5     9.82854                  0.577087
14611 4383       9.749411                 0.57863
14626 4387.5     9.678648                 0.578117
14641 4392       9.603075                 0.577628
14656 4396.5     9.53129                  0.577681
14671 4401       9.449573                 0.577012
14686 4405.5     9.372881                 0.577346
14701 4410       9.29471                  0.576593
14716 4414.5     9.21974                  0.57728
14731 4419       9.143755                 0.576887
14746 4423.5     9.069253                 0.57746
14761 4428       8.988578                 0.5785
14776 4432.5     8.921235                 0.57865
14791 4437       8.839094                 0.579539
14806 4441.5     8.766979                 0.580812
14821 4446       8.692282                 0.582723
14836 4450.5     8.615165                 0.58447
14851 4455       8.536566                 0.584598
14866 4459.5     8.457806                 0.586492
14881 4464       8.381319                 0.587794
14896 4468.5     8.313152                 0.589632
14911 4473       8.231994                 0.591832
14926 4477.5     8.155149                 0.592875
14941 4482       8.082751                 0.595965
14956 4486.5     8.010952                 0.597918
14971 4491       7.938447                 0.600745
14986 4495.5     7.856478                 0.602277
15001 4500       7.77823                  0.604008