File: rawdata/SM_LPS_in_H2O_h2.txt
SM_LPS_in_H2O
Creation Date : 12/20/2018 2:23:53 PM
User : PSCM

HeatFlow :
 Initial Mass : 497 mg
 Molar Mass : N/A

Index Time (s)   Furnace Temperature (Â°C) HeatFlow (mW)
1     0          4.44332                  0.48239
17    4.8        4.420756                 0.458198
33    9.6        4.155374                 0.436067
49    14.4       3.833715                 0.417664
65    19.2       3.576308                 0.40453
81    24         3.367308                 0.397754
97    28.8       3.279243                 0.39726
113   33.6       3.201665                 0.401877
129   38.4       3.1969                   0.410789
145   43.2       3.166821                 0.423474
161   48         3.162046                 0.438616
177   52.8       3.195831                 0.455458
193   57.6       3.208561                 0.471811
209   62.4       3.239967                 0.487588
225   67.2       3.278833                 0.502449
241   72         3.332799                 0.515302
257   76.8       3.388872                 0.526231
273   81.6       3.449062                 0.534924
289   86.4       3.503043                 0.540744
305   91.2       3.565378                 0.544273
321   96         3.633955                 0.544777
337   100.8      3.694973                 0.543366
353   105.6      3.763458                 0.539335
369   110.4      3.832367                 0.532927
385   115.2      3.909761                 0.523652
401   120        3.98362                  0.512199
417   124.8      4.059958                 0.49906
433   129.6      4.134552                 0.484145
449   134.4      4.211337                 0.466783
465   139.2      4.290632                 0.44834
481   144        4.369065                 0.427677
497   148.8      4.449142                 0.406025
513   153.6      4.529645                 0.38381
529   158.4      4.610972                 0.360724
545   163.2      4.69254                  0.335914
561   168        4.738352                 0.310374
577   172.8      4.752997                 0.284866
593   177.6      4.785922                 0.259595
609   182.4      4.848954                 0.234138
625   187.2      4.93084                  0.208477
641   192        5.002743                 0.182516
657   196.8      5.0823                   0.15661
673   201.6      5.159249                 0.131304
689   206.4      5.241408                 0.104552
705   211.2      5.336236                 0.078561
721   216        5.418412                 0.052737
737   220.8      5.501529                 0.027219
753   225.6      5.586045                 0.003165
769   230.4      5.676731                 -0.021621
785   235.2      5.768382                 -0.046632
801   240        5.848981                 -0.070137
817   244.8      5.941117                 -0.09302
833   249.6      6.029404                 -0.116379
849   254.4      6.123491                 -0.138695
865   259.2      6.20745                  -0.159319
881   264        6.297164                 -0.179637
897   268.8      6.388056                 -0.199231
913   273.6      6.485092                 -0.219003
929   278.4      6.571608                 -0.236214
945   283.2      6.655085                 -0.253099
961   288        6.747781                 -0.270585
977   292.8      6.840161                 -0.286754
993   297.6      6.940957                 -0.302263
1009  302.4      7.026951                 -0.316719
1025  307.2      7.116593                 -0.330388
1041  312        7.202644                 -0.344706
1057  316.8      7.29839                  -0.357134
1073  321.6      7.381516                 -0.370003
1089  326.4      7.465872                 -0.382808
1105  331.2      7.558481                 -0.395172
1121  336        7.650493                 -0.406782
1137  340.8      7.744712                 -0.418139
1153  345.6      7.83062                  -0.429269
1169  350.4      7.918927                 -0.43921
1185  355.2      8.00623                  -0.449433
1201  360        8.102174                 -0.458248
1217  364.8      8.19126                  -0.467238
1233  369.6      8.273094                 -0.474992
1249  374.4      8.360418                 -0.482665
1265  379.2      8.451111                 -0.490903
1281  384        8.548247                 -0.498956
1297  388.8      8.631573                 -0.506001
1313  393.6      8.719234                 -0.513368
1329  398.4      8.802997                 -0.520963
1345  403.2      8.894321                 -0.526433
1361  408        8.98426                  -0.533649
1377  412.8      9.06206                  -0.539534
1393  417.6      9.153514                 -0.544001
1409  422.4      9.240487                 -0.549537
1425  427.2      9.333613                 -0.554212
1441  432        9.411672                 -0.558598
1457  436.8      9.496828                 -0.561993
1473  441.6      9.587909                 -0.565191
1489  446.4      9.677967                 -0.567772
1505  451.2      9.762958                 -0.569446
1521  456        9.84585                  -0.570622
1537  460.8      9.93305                  -0.571946
1553  465.6      10.0124                -0.573682
1569  470.4      10.1071                -0.574264
1585  475.2      10.19332                 -0.575885
1601  480        10.27468                 -0.576126
1617  484.8      10.3645                -0.576397
1633  489.6      10.4526                -0.577749
1649  494.4      10.54338                 -0.577381
1665  499.2      10.6213                -0.577558
1681  504        10.701                -0.57876
1697  508.8      10.7846                -0.580018
1713  513.6      10.87224                 -0.579787
1729  518.4      10.96268                 -0.580623
1745  523.2      11.0443                -0.582239
1761  528        11.1275                -0.583774
1777  532.8      11.2112                -0.582761
1793  537.6      11.302                -0.583498
1809  542.4      11.3898                -0.583409
1825  547.2      11.4668                -0.583369
1841  552        11.5535                -0.583665
1857  556.8      11.6327                -0.583102
1873  561.6      11.7228                -0.582617
1889  566.4      11.8101                -0.583272
1905  571.2      11.8882                -0.58391
1921  576        11.9771                -0.584598
1937  580.8      12.0647                -0.58494
1953  585.6      12.15249                 -0.585089
1969  590.4      12.2292                -0.585645
1985  595.2      12.3095                -0.585639
2001  600        12.3918                -0.586352
2017  604.8      12.4767                -0.586037
2033  609.6      12.568                -0.58719
2049  614.4      12.6462                -0.587219
2065  619.2      12.7295                -0.58732
2081  624        12.8158                -0.588136
2097  628.8      12.9037                -0.586763
2113  633.6      12.9844                -0.58664
2129  638.4      13.0653                -0.58652
2145  643.2      13.1492                -0.586041
2161  648        13.2284                -0.585513
2177  652.8      13.3198                -0.583824
2193  657.6      13.4076                -0.583377
2209  662.4      13.4841                -0.583979
2225  667.2      13.5751                -0.584879
2241  672        13.6558                -0.583443
2257  676.8      13.7426                -0.583371
2273  681.6      13.8207                -0.58236
2289  686.4      13.8989                -0.582118
2305  691.2      13.9847                -0.581712
2321  696        14.0704                -0.582443
2337  700.8      14.16214                 -0.582805
2353  705.6      14.2362                -0.583293
2369  710.4      14.317                -0.58322
2385  715.2      14.4067                -0.583834
2401  720        14.4928                -0.58318
2417  724.8      14.5837                -0.583101
2433  729.6      14.66                -0.584097
2449  734.4      14.7385                -0.584547
2465  739.2      14.8186                -0.58428
2481  744        14.9066                -0.583135
2497  748.8      14.9967                -0.582778
2513  753.6      15.0778                -0.583192
2529  758.4      15.1583                -0.583954
2545  763.2      15.2393                -0.584854
2561  768        15.3271                -0.583635
2577  772.8      15.4092                -0.583711
2593  777.6      15.48773                 -0.583602
2609  782.4      15.5748                -0.583472
2625  787.2      15.6515                -0.583287
2641  792        15.74468                 -0.584121
2657  796.8      15.824                -0.584328
2673  801.6      15.9004                -0.585793
2689  806.4      15.9948                -0.58486
2705  811.2      16.0791                -0.584833
2721  816        16.1655                -0.585008
2737  820.8      16.2394                -0.584188
2753  825.6      16.31673                 -0.584698
2769  830.4      16.4036                -0.583175
2785  835.2      16.4924                -0.583016
2801  840        16.5848                -0.583494
2817  844.8      16.6624                -0.583046
2833  849.6      16.7389                -0.582857
2849  854.4      16.8255                -0.582518
2865  859.2      16.9087                -0.581776
2881  864        17.0002                -0.581308
2897  868.8      17.0797                -0.581595
2913  873.6      17.1571                -0.581592
2929  878.4      17.2363                  -0.580856
2945  883.2      17.3239                -0.580227
2961  888        17.4086                -0.581352
2977  892.8      17.48989                 -0.581784
2993  897.6      17.5729                -0.581284
3009  902.4      17.6569                -0.58154
3025  907.2      17.745                -0.581699
3041  912        17.8307                -0.580919
3057  916.8      17.9064                -0.581279
3073  921.6      17.9916                -0.580497
3089  926.4      18.0668                -0.579896
3105  931.2      18.1608                -0.580748
3121  936        18.2462                -0.579584
3137  940.8      18.3202                -0.580881
3153  945.6      18.4113                -0.581279
3169  950.4      18.4936                -0.579995
3185  955.2      18.5799                -0.5804
3201  960        18.6561                -0.579717
3217  964.8      18.7319                -0.580036
3233  969.6      18.8204                -0.581587
3249  974.4      18.9061                -0.581394
3265  979.2      18.9975                -0.581479
3281  984        19.0701                -0.58342
3297  988.8      19.1502                -0.584051
3313  993.6      19.2393                -0.583511
3329  998.4      19.3254                -0.583345
3345  1003.2     19.41335                 -0.584203
3361  1008       19.486                -0.583219
3377  1012.8     19.5679                -0.581915
3393  1017.6     19.6512                -0.58187
3409  1022.4     19.73731                 -0.580423
3425  1027.2     19.8296                -0.580424
3441  1032       19.909                -0.581219
3457  1036.8     19.9881                -0.580584
3473  1041.6     20.0715                -0.580151
3489  1046.4     20.159                -0.578797
3505  1051.2     20.2408                -0.57814
3521  1056       20.321                -0.57785
3537  1060.8     20.4042                -0.578476
3553  1065.6     20.4827                -0.579277
3569  1070.4     20.5741                -0.579602
3585  1075.2     20.6555                -0.580131
3601  1080       20.7333                -0.579707
3617  1084.8     20.8252                -0.580175
3633  1089.6     20.9048                -0.579978
3649  1094.4     20.9938                -0.580357
3665  1099.2     21.0756                -0.579872
3681  1104       21.14825                 -0.579427
3697  1108.8     21.235                -0.578155
3713  1113.6     21.31846                 -0.578352
3729  1118.4     21.4103                -0.579039
3745  1123.2     21.4908                -0.579834
3761  1128       21.5684                -0.579489
3777  1132.8     21.6557                -0.578855
3793  1137.6     21.7392                -0.579987
3809  1142.4     21.8298                -0.579546
3825  1147.2     21.9022                -0.578989
3841  1152       21.983                -0.579497
3857  1156.8     22.0651                -0.578776
3873  1161.6     22.1517                -0.578642
3889  1166.4     22.2426                -0.578485
3905  1171.2     22.319                -0.580363
3921  1176       22.39813                 -0.58068
3937  1180.8     22.4853                -0.58044
3953  1185.6     22.571                -0.580734
3969  1190.4     22.6546                -0.580812
3985  1195.2     22.7344                -0.579855
4001  1200       22.8157                -0.579201
4017  1204.8     22.8958                -0.578514
4033  1209.6     22.98485                 -0.577648
4049  1214.4     23.0735                -0.577102
4065  1219.2     23.1527                -0.579149
4081  1224       23.2384                -0.577599
4097  1228.8     23.3162                -0.577458
4113  1233.6     23.4062                -0.576821
4129  1238.4     23.4896                -0.576773
4145  1243.2     23.5639                -0.575813
4161  1248       23.6498                -0.57611
4177  1252.8     23.7296                -0.575889
4193  1257.6     23.8201                -0.577189
4209  1262.4     23.9005                -0.577114
4225  1267.2     23.9764                -0.576956
4241  1272       24.068                -0.576945
4257  1276.8     24.1534                -0.576651
4273  1281.6     24.24207                 -0.576573
4289  1286.4     24.3178                -0.574888
4305  1291.2     24.3955                -0.57484
4321  1296       24.477                -0.574747
4337  1300.8     24.566                -0.574228
4353  1305.6     24.6574                -0.574705
4369  1310.4     24.73564                 -0.575243
4385  1315.2     24.8146                -0.575518
4401  1320       24.8988                -0.575729
4417  1324.8     24.985                -0.576283
4433  1329.6     25.0743                -0.576633
4449  1334.4     25.1488                -0.576389
4465  1339.2     25.2297                -0.577019
4481  1344       25.3098                -0.576931
4497  1348.8     25.3969                -0.57707
4513  1353.6     25.4839                -0.57804
4529  1358.4     25.5636                -0.57903
4545  1363.2     25.6442                -0.579331
4561  1368       25.7286                -0.57842
4577  1372.8     25.8178                -0.57795
4593  1377.6     25.89802                 -0.577664
4609  1382.4     25.9771                -0.578097
4625  1387.2     26.061                -0.578091
4641  1392       26.1392                -0.577948
4657  1396.8     26.2316                -0.577303
4673  1401.6     26.3186                -0.576719
4689  1406.4     26.3944                -0.577718
4705  1411.2     26.4828                -0.577059
4721  1416       26.56184                 -0.576964
4737  1420.8     26.6518                -0.576288
4753  1425.6     26.7281                -0.576912
4769  1430.4     26.803                -0.576651
4785  1435.2     26.892                -0.576557
4801  1440       26.9767                -0.576559
4817  1444.8     27.0673                -0.576668
4833  1449.6     27.1438                -0.577481
4849  1454.4     27.2217                -0.578697
4865  1459.2     27.3105                -0.579528
4881  1464       27.3988                -0.578558
4897  1468.8     27.4861                -0.57857
4913  1473.6     27.5614                -0.578266
4929  1478.4     27.6403                -0.577616
4945  1483.2     27.7233                -0.578646
4961  1488       27.8087                -0.579674
4977  1492.8     27.9039                -0.578873
4993  1497.6     27.9815                -0.578333
5009  1502.4     28.0581                -0.57889
5025  1507.2     28.1438                -0.579413
5041  1512       28.227                -0.579283
5057  1516.8     28.3126                -0.57914
5073  1521.6     28.3917                -0.578696
5089  1526.4     28.4743                -0.579204
5105  1531.2     28.5525                -0.579292
5121  1536       28.6422                -0.579873
5137  1540.8     28.7271                -0.57919
5153  1545.6     28.8074                -0.579929
5169  1550.4     28.8925                -0.579888
5185  1555.2     28.9737                -0.579985
5201  1560       29.0616                -0.581413
5217  1564.8     29.1395                -0.580875
5233  1569.6     29.2188                -0.580803
5249  1574.4     29.3082                -0.579091
5265  1579.2     29.386                -0.579951
5281  1584       29.4767                -0.579769
5297  1588.8     29.56098                 -0.578721
5313  1593.6     29.63461                 -0.579038
5329  1598.4     29.7269                -0.577991
5345  1603.2     29.8101                -0.578532
5361  1608       29.8986                -0.577719
5377  1612.8     29.9748                -0.576775
5393  1617.6     30.0491                -0.578164
5409  1622.4     30.1343                -0.577183
5425  1627.2     30.2228                -0.576766
5441  1632       30.31264                 -0.577159
5457  1636.8     30.3868                -0.576418
5473  1641.6     30.4666                -0.576462
5489  1646.4     30.5553                -0.575836
5505  1651.2     30.6415                -0.577299
5521  1656       30.7325                -0.575271
5537  1660.8     30.8077                -0.575011
5553  1665.6     30.88416                 -0.575031
5569  1670.4     30.966                -0.575139
5585  1675.2     31.0514                -0.574989
5601  1680       31.1447                -0.574683
5617  1684.8     31.2243                -0.574147
5633  1689.6     31.3036                -0.575677
5649  1694.4     31.3857                -0.575792
5665  1699.2     31.4716                -0.575846
5681  1704       31.5584                -0.575231
5697  1708.8     31.6382                -0.575847
5713  1713.6     31.7199                -0.576913
5729  1718.4     31.7963                -0.576062
5745  1723.2     31.8865                -0.577444
5761  1728       31.9679                -0.577301
5777  1732.8     32.049                -0.578373
5793  1737.6     32.1384                  -0.579195
5809  1742.4     32.2182                -0.579568
5825  1747.2     32.3084                -0.579853
5841  1752       32.3844                -0.578747
5857  1756.8     32.4612                -0.577955
5873  1761.6     32.5495                -0.578165
5889  1766.4     32.6308                -0.579881
5905  1771.2     32.7218                -0.578361
5921  1776       32.805                -0.576235
5937  1780.8     32.8789                -0.579225
5953  1785.6     32.96813                 -0.577595
5969  1790.4     33.0521                -0.577003
5985  1795.2     33.1408                -0.576556
6001  1800       33.2125                -0.576728
6017  1804.8     33.2936                -0.575868
6033  1809.6     33.379                -0.575327
6049  1814.4     33.46649                 -0.576284
6065  1819.2     33.55555                 -0.576873
6081  1824       33.6275                -0.576791
6097  1828.8     33.7107                -0.578261
6113  1833.6     33.7989                -0.578799
6129  1838.4     33.8835                -0.577712
6145  1843.2     33.9752                -0.578693
6161  1848       34.0499                -0.577621
6177  1852.8     34.1269                -0.577888
6193  1857.6     34.2096                -0.576856
6209  1862.4     34.2959                -0.576973
6225  1867.2     34.3889                -0.576283
6241  1872       34.46883                 -0.577334
6257  1876.8     34.5445                -0.578729
6273  1881.6     34.6296                -0.576626
6289  1886.4     34.7159                -0.576668
6305  1891.2     34.8028                -0.577971
6321  1896       34.87981                 -0.576317
6337  1900.8     34.9649                -0.577887
6353  1905.6     35.0385                -0.575708
6369  1910.4     35.1278                -0.577443
6385  1915.2     35.2135                -0.57729
6401  1920       35.2925                -0.57693
6417  1924.8     35.3813                -0.577474
6433  1929.6     35.4631                -0.577131
6449  1934.4     35.5496                -0.575862
6465  1939.2     35.6264                -0.575528
6481  1944       35.70254                 -0.574077
6497  1948.8     35.7951                -0.571495
6513  1953.6     35.8742                -0.569944
6529  1958.4     35.9648                -0.568492
6545  1963.2     36.0475                -0.568442
6561  1968       36.1212                -0.566003
6577  1972.8     36.2109                -0.56217
6593  1977.6     36.29651                 -0.560089
6609  1982.4     36.3855                -0.555856
6625  1987.2     36.46072                 -0.553244
6641  1992       36.5367                -0.550787
6657  1996.8     36.6203                -0.552067
6673  2001.6     36.70867                 -0.548258
6689  2006.4     36.7994                -0.547005
6705  2011.2     36.8736                -0.548338
6721  2016       36.9532                -0.547767
6737  2020.8     37.0422                -0.548648
6753  2025.6     37.1271                -0.546384
6769  2030.4     37.2177                -0.547666
6785  2035.2     37.2941                -0.546644
6801  2040       37.371                -0.546096
6817  2044.8     37.45324                 -0.546697
6833  2049.6     37.5385                -0.546008
6849  2054.4     37.6322                -0.547478
6865  2059.2     37.7116                -0.547961
6881  2064       37.7889                -0.549604
6897  2068.8     37.8723                -0.549076
6913  2073.6     37.9589                -0.549918
6929  2078.4     38.0436                -0.549757
6945  2083.2     38.1211                -0.554525
6961  2088       38.2056                -0.552965
6977  2092.8     38.2826                -0.552589
6993  2097.6     38.3737                -0.552724
7009  2102.4     38.4558                -0.554192
7025  2107.2     38.5337                -0.556286
7041  2112       38.6239                -0.55524
7057  2116.8     38.7052                -0.556852
7073  2121.6     38.7946                -0.557493
7089  2126.4     38.8686                -0.556711
7105  2131.2     38.9464                -0.557548
7121  2136       39.0365                -0.556194
7137  2140.8     39.1166                -0.557338
7153  2145.6     39.2086                -0.558237
7169  2150.4     39.2922                -0.557119
7185  2155.2     39.3641                -0.55686
7201  2160       39.4555                -0.557798
7217  2164.8     39.5397                -0.556818
7233  2169.6     39.62612                 -0.557305
7249  2174.4     39.6998                -0.557676
7265  2179.2     39.7787                -0.558506
7281  2184       39.8643                -0.557305
7297  2188.8     39.953                -0.557945
7313  2193.6     40.0428                -0.559559
7329  2198.4     40.1156                -0.559352
7345  2203.2     40.1952                -0.560065
7361  2208       40.2856                -0.56072
7377  2212.8     40.3696                -0.56155
7393  2217.6     40.4613                -0.56149
7409  2222.4     40.538                -0.562402
7425  2227.2     40.6154                -0.560666
7441  2232       40.6947                -0.560344
7457  2236.8     40.7814                -0.559896
7473  2241.6     40.8751                -0.559118
7489  2246.4     40.9555                -0.561632
7505  2251.2     41.0322                -0.561134
7521  2256       41.11509                 -0.560729
7537  2260.8     41.2018                -0.5618
7553  2265.6     41.2848                -0.562873
7569  2270.4     41.3626                -0.562564
7585  2275.2     41.4479                -0.562946
7601  2280       41.5281                -0.56249
7617  2284.8     41.6179                -0.563673
7633  2289.6     41.6989                -0.565862
7649  2294.4     41.7777                -0.56697
7665  2299.2     41.8679                -0.566994
7681  2304       41.9474                -0.566792
7697  2308.8     42.0365                -0.568582
7713  2313.6     42.1148                -0.566959
7729  2318.4     42.191                -0.570257
7745  2323.2     42.2798                -0.568643
7761  2328       42.3584                -0.569323
7777  2332.8     42.4511                -0.569954
7793  2337.6     42.5349                -0.570676
7809  2342.4     42.6078                -0.571054
7825  2347.2     42.6992                -0.572058
7841  2352       42.7835                -0.570681
7857  2356.8     42.8707                -0.572044
7873  2361.6     42.94832                 -0.572074
7889  2366.4     43.02343                 -0.571514
7905  2371.2     43.1071                -0.574069
7921  2376       43.19467                 -0.575057
7937  2380.8     43.2881                -0.574692
7953  2385.6     43.3602                -0.576893
7969  2390.4     43.439                -0.57699
7985  2395.2     43.5274                -0.579792
8001  2400       43.6148                -0.578113
8017  2404.8     43.7043                -0.577589
8033  2409.6     43.7784                -0.577895
8049  2414.4     43.8564                -0.579297
8065  2419.2     43.9388                -0.578198
8081  2424       44.02627                 -0.577507
8097  2428.8     44.1208                -0.579339
8113  2433.6     44.1975                -0.57803
8129  2438.4     44.27273                 -0.580409
8145  2443.2     44.3582                -0.580331
8161  2448       44.4448                -0.579793
8177  2452.8     44.5306                -0.580013
8193  2457.6     44.6074                -0.580147
8209  2462.4     44.689                -0.582622
8225  2467.2     44.7692                -0.583855
8241  2472       44.8596                -0.58333
8257  2476.8     44.944                -0.582795
8273  2481.6     45.0238                -0.583674
8289  2486.4     45.10471                 -0.586014
8305  2491.2     45.1885                -0.585661
8321  2496       45.2796                -0.585711
8337  2500.8     45.3593                -0.585881
8353  2505.6     45.4352                -0.586128
8369  2510.4     45.5226                -0.585887
8385  2515.2     45.6006                -0.584534
8401  2520       45.6933                -0.584492
8417  2524.8     45.7786                -0.584475
8433  2529.6     45.8524                -0.58353
8449  2534.4     45.9402                -0.584533
8465  2539.2     46.0238                -0.582012
8481  2544       46.1112                -0.582648
8497  2548.8     46.188                -0.583508
8513  2553.6     46.2627                -0.582269
8529  2558.4     46.3529                -0.585307
8545  2563.2     46.4373                -0.581407
8561  2568       46.5308                -0.581115
8577  2572.8     46.6034                -0.581399
8593  2577.6     46.6801                -0.582261
8609  2582.4     46.7711                -0.584392
8625  2587.2     46.8594                -0.584253
8641  2592       46.9476                -0.585414
8657  2596.8     47.0192                -0.585417
8673  2601.6     47.096                -0.583758
8689  2606.4     47.1818                -0.582673
8705  2611.2     47.27                -0.582288
8721  2616       47.3629                -0.58245
8737  2620.8     47.4398                -0.585166
8753  2625.6     47.5156                -0.583959
8769  2630.4     47.6028                -0.584775
8785  2635.2     47.6871                -0.584197
8801  2640       47.77875                 -0.584493
8817  2644.8     47.8527                -0.584283
8833  2649.6     47.9316                -0.584803
8849  2654.4     48.0125                -0.583723
8865  2659.2     48.1018                -0.583996
8881  2664       48.1889                -0.583999
8897  2668.8     48.267                -0.583082
8913  2673.6     48.3466                -0.585079
8929  2678.4     48.4324                -0.584543
8945  2683.2     48.5196                -0.583391
8961  2688       48.6012                -0.584492
8977  2692.8     48.6803                -0.583165
8993  2697.6     48.765                -0.584162
9009  2702.4     48.8437                -0.583547
9025  2707.2     48.9342                -0.581357
9041  2712       49.0227                -0.583113
9057  2716.8     49.098                -0.58221
9073  2721.6     49.1852                -0.581123
9089  2726.4     49.2622                -0.582703
9105  2731.2     49.353                -0.580921
9121  2736       49.4358                -0.581452
9137  2740.8     49.5105                -0.581303
9153  2745.6     49.5982                -0.581157
9169  2750.4     49.6753                -0.580331
9185  2755.2     49.7667                -0.580165
9201  2760       49.8484                -0.580536
9217  2764.8     49.9241                -0.581059
9233  2769.6     50.0174                -0.581964
9249  2774.4     50.1023                -0.582687
9265  2779.2     50.1865                -0.581954
9281  2784       50.2653                -0.582341
9297  2788.8     50.33934                 -0.582193
9313  2793.6     50.4248                -0.58306
9329  2798.4     50.5113                -0.581893
9345  2803.2     50.6042                -0.580807
9361  2808       50.6812                -0.582575
9377  2812.8     50.7594                -0.582833
9393  2817.6     50.8461                -0.582728
9409  2822.4     50.9316                -0.582904
9425  2827.2     51.0197                -0.582645
9441  2832       51.0908                -0.583394
9457  2836.8     51.1703                -0.583542
9473  2841.6     51.2548                -0.585235
9489  2846.4     51.3446                -0.585384
9505  2851.2     51.4357                -0.583405
9521  2856       51.50643                 -0.586591
9537  2860.8     51.5863                -0.586655
9553  2865.6     51.6758                -0.584608
9569  2870.4     51.7628                -0.58604
9585  2875.2     51.8487                -0.586627
9601  2880       51.9214                -0.586736
9617  2884.8     52.0038                -0.585993
9633  2889.6     52.088                -0.583884
9649  2894.4     52.1759                -0.584375
9665  2899.2     52.2658                -0.583355
9681  2904       52.3434                -0.583284
9697  2908.8     52.4233                -0.583489
9713  2913.6     52.5065                -0.583239
9729  2918.4     52.594                -0.581275
9745  2923.2     52.6745                -0.581456
9761  2928       52.7553                -0.580958
9777  2932.8     52.8387                -0.581958
9793  2937.6     52.9182                -0.582726
9809  2942.4     53.0097                -0.583412
9825  2947.2     53.0926                -0.582978
9841  2952       53.1685                -0.583983
9857  2956.8     53.25698                 -0.583346
9873  2961.6     53.3406                -0.585948
9889  2966.4     53.429                -0.583937
9905  2971.2     53.5095                -0.58378
9921  2976       53.584                -0.585029
9937  2980.8     53.6716                -0.585378
9953  2985.6     53.7516                -0.58422
9969  2990.4     53.8427                -0.58716
9985  2995.2     53.9267                -0.586606
10001 3000       54                -0.585493
10017 3004.8     54.0904                -0.585227
10033 3009.6     54.1764                -0.585681
10049 3014.4     54.263                -0.586499
10065 3019.2     54.3344                -0.582893
10081 3024       54.4113                -0.58304
10097 3028.8     54.5003                -0.584869
10113 3033.6     54.589                -0.585
10129 3038.4     54.6774                -0.58353
10145 3043.2     54.7499                -0.584134
10161 3048       54.8285                -0.584977
10177 3052.8     54.9213                -0.586085
10193 3057.6     55.00754                 -0.587141
10209 3062.4     55.0925                -0.58763
10225 3067.2     55.162                   -0.584548
10241 3072       55.2435                -0.585058
10257 3076.8     55.3312                -0.584446
10273 3081.6     55.42                -0.584461
10289 3086.4     55.5116                -0.584127
10305 3091.2     55.5855                -0.582115
10321 3096       55.6611                -0.581153
10337 3100.8     55.7506                -0.581998
10353 3105.6     55.8364                -0.581281
10369 3110.4     55.9265                -0.580349
10385 3115.2     56.0013                -0.577794
10401 3120       56.0806                -0.579931
10417 3124.8     56.16066                 -0.579113
10433 3129.6     56.25054                 -0.581224
10449 3134.4     56.3361                -0.579399
10465 3139.2     56.4157                -0.579795
10481 3144       56.4963                -0.580153
10497 3148.8     56.5813                -0.580425
10513 3153.6     56.6692                -0.581051
10529 3158.4     56.7522                -0.579518
10545 3163.2     56.8311                -0.578432
10561 3168       56.9129                -0.578746
10577 3172.8     56.993                -0.577297
10593 3177.6     57.0817                  -0.577877
10609 3182.4     57.1709                -0.57732
10625 3187.2     57.2468                -0.578893
10641 3192       57.3322                -0.579407
10657 3196.8     57.4108                -0.579932
10673 3201.6     57.5013                -0.580989
10689 3206.4     57.5849                -0.581454
10705 3211.2     57.6579                -0.579724
10721 3216       57.7459                -0.578908
10737 3220.8     57.8251                -0.57999
10753 3225.6     57.9168                -0.580423
10769 3230.4     57.9957                -0.580279
10785 3235.2     58.0734                -0.582612
10801 3240       58.165                -0.581242
10817 3244.8     58.2481                -0.582971
10833 3249.6     58.333                -0.581352
10849 3254.4     58.4085                -0.581241
10865 3259.2     58.484                -0.58243
10881 3264       58.57551                 -0.582372
10897 3268.8     58.6612                -0.582902
10913 3273.6     58.7512                -0.579999
10929 3278.4     58.829                -0.582386
10945 3283.2     58.9038                -0.581974
10961 3288       58.993                -0.581563
10977 3292.8     59.08035                 -0.582518
10993 3297.6     59.1686                -0.58051
11009 3302.4     59.2383                -0.581106
11025 3307.2     59.3164                -0.581638
11041 3312       59.4028                -0.58241
11057 3316.8     59.4934                -0.581663
11073 3321.6     59.5841                -0.582308
11089 3326.4     59.6559                -0.583063
11105 3331.2     59.73311                 -0.582628
11121 3336       59.8246                -0.583693
11137 3340.8     59.9116                -0.581558
11153 3345.6     60.0029                -0.582849
11169 3350.4     60.0765                -0.583324
11185 3355.2     60.1513                -0.582777
11201 3360       60.233                -0.581599
11217 3364.8     60.3217                -0.580646
11233 3369.6     60.4163                -0.581672
11249 3374.4     60.4927                -0.57833
11265 3379.2     60.5702                -0.580459
11281 3384       60.6562                -0.581989
11297 3388.8     60.7425                -0.581725
11313 3393.6     60.8304                -0.580859
11329 3398.4     60.9074                -0.580124
11345 3403.2     60.9843                -0.581719
11361 3408       61.0663                -0.581438
11377 3412.8     61.1568                -0.582368
11393 3417.6     61.23975                 -0.581459
11409 3422.4     61.3192                -0.581708
11425 3427.2     61.4009                -0.584892
11441 3432       61.4865                -0.582722
11457 3436.8     61.5759                -0.579961
11473 3441.6     61.6544                -0.582204
11489 3446.4     61.7313                -0.580532
11505 3451.2     61.8199                -0.58111
11521 3456       61.89878                 -0.579355
11537 3460.8     61.9904                -0.576974
11553 3465.6     62.0749                -0.576752
11569 3470.4     62.1479                -0.57653
11585 3475.2     62.2363                -0.577493
11601 3480       62.3192                -0.576945
11617 3484.8     62.4077                -0.576586
11633 3489.6     62.488                -0.574828
11649 3494.4     62.5632                -0.575003
11665 3499.2     62.6514                -0.574574
11681 3504       62.732                -0.575082
11697 3508.8     62.8223                -0.576644
11713 3513.6     62.9003                -0.575662
11729 3518.4     62.97578                 -0.57837
11745 3523.2     63.0699                -0.577884
11761 3528       63.1561                -0.578037
11777 3532.8     63.2412                -0.578641
11793 3537.6     63.3172                -0.577073
11809 3542.4     63.3943                -0.578343
11825 3547.2     63.4774                -0.578232
11841 3552       63.56584                 -0.576667
11857 3556.8     63.6593                -0.577447
11873 3561.6     63.7336                -0.577714
11889 3566.4     63.8098                -0.576546
11905 3571.2     63.8984                -0.577719
11921 3576       63.9854                -0.57848
11937 3580.8     64.0745                -0.578115
11953 3585.6     64.1463                -0.578371
11969 3590.4     64.2238                -0.579942
11985 3595.2     64.3102                -0.576399
12001 3600       64.3979                -0.57764
12017 3604.8     64.488                -0.579468
12033 3609.6     64.5588                -0.578699
12049 3614.4     64.6407                -0.581242
12065 3619.2     64.7319                -0.580419
12081 3624       64.8169                -0.579763
12097 3628.8     64.9011                -0.578606
12113 3633.6     64.9729                -0.578635
12129 3638.4     65.0555                -0.578631
12145 3643.2     65.142                -0.576649
12161 3648       65.2314                -0.577099
12177 3652.8     65.321                -0.578098
12193 3657.6     65.3971                -0.577208
12209 3662.4     65.47421                 -0.57862
12225 3667.2     65.5599                -0.578161
12241 3672       65.6484                -0.576121
12257 3676.8     65.731                -0.577462
12273 3681.6     65.8083                -0.576839
12289 3686.4     65.8889                -0.576332
12305 3691.2     65.97205                 -0.577742
12321 3696       66.0632                -0.576129
12337 3700.8     66.1472                -0.575927
12353 3705.6     66.2247                -0.578267
12369 3710.4     66.3079                -0.576486
12385 3715.2     66.3904                -0.577565
12401 3720       66.481                -0.578762
12417 3724.8     66.5658                -0.578031
12433 3729.6     66.6393                -0.57652
12449 3734.4     66.7237                -0.577562
12465 3739.2     66.8011                -0.578186
12481 3744       66.8966                -0.578338
12497 3748.8     66.9819                -0.575136
12513 3753.6     67.05526                 -0.578039
12529 3758.4     67.143                -0.578017
12545 3763.2     67.225                -0.576147
12561 3768       67.3134                -0.576219
12577 3772.8     67.391                -0.576488
12593 3777.6     67.465                -0.57716
12609 3782.4     67.55539                 -0.576622
12625 3787.2     67.6381                -0.576181
12641 3792       67.7291                -0.576349
12657 3796.8     67.805                -0.57663
12673 3801.6     67.8789                -0.579541
12689 3806.4     67.975                -0.578537
12705 3811.2     68.062                -0.575749
12721 3816       68.1465                -0.575286
12737 3820.8     68.2185                -0.574181
12753 3825.6     68.2946                -0.574212
12769 3830.4     68.3856                -0.573334
12785 3835.2     68.4731                -0.572376
12801 3840       68.5656                -0.57281
12817 3844.8     68.63991                 -0.572873
12833 3849.6     68.7129                -0.571541
12849 3854.4     68.8028                -0.569002
12865 3859.2     68.89299                 -0.570538
12881 3864       68.981                -0.57222
12897 3868.8     69.0526                -0.570945
12913 3873.6     69.1306                -0.57058
12929 3878.4     69.2156                -0.569084
12945 3883.2     69.3043                -0.570242
12961 3888       69.3951                -0.570924
12977 3892.8     69.4678                -0.569906
12993 3897.6     69.547                -0.572353
13009 3902.4     69.6364                -0.5731
13025 3907.2     69.7199                -0.573721
13041 3912       69.8107                -0.570614
13057 3916.8     69.8855                -0.57195
13073 3921.6     69.96344                 -0.573054
13089 3926.4     70.04645                 -0.570087
13105 3931.2     70.13326                 -0.570929
13121 3936       70.2277                -0.57129
13137 3940.8     70.3062                -0.570349
13153 3945.6     70.3801                -0.569739
13169 3950.4     70.4646                -0.572084
13185 3955.2     70.553                -0.571694
13201 3960       70.6396                -0.572831
13217 3964.8     70.7157                -0.572163
13233 3969.6     70.7945                -0.576515
13249 3974.4     70.8777                -0.575925
13265 3979.2     70.9682                -0.571159
13281 3984       71.0507                -0.57482
13297 3988.8     71.1289                -0.577916
13313 3993.6     71.2133                -0.576755
13329 3998.4     71.2976                -0.580319
13345 4003.2     71.3847                -0.581094
13361 4008       71.4643                -0.576446
13377 4012.8     71.5436                -0.578951
13393 4017.6     71.6274                  -0.577902
13409 4022.4     71.7091                -0.575958
13425 4027.2     71.8002                -0.576122
13441 4032       71.8874                -0.575546
13457 4036.8     71.9606                -0.575376
13473 4041.6     72.04722                 -0.575291
13489 4046.4     72.1277                -0.573528
13505 4051.2     72.2198                -0.571657
13521 4056       72.2967                -0.572415
13537 4060.8     72.3713                -0.572535
13553 4065.6     72.4615                -0.574496
13569 4070.4     72.542                -0.574783
13585 4075.2     72.6354                -0.573103
13601 4080       72.711                -0.574021
13617 4084.8     72.7862                -0.573582
13633 4089.6     72.879                -0.572413
13649 4094.4     72.9664                -0.571224
13665 4099.2     73.05559                 -0.573638
13681 4104       73.1304                -0.572933
13697 4108.8     73.2029                -0.571803
13713 4113.6     73.2922                -0.57292
13729 4118.4     73.3742                -0.573229
13745 4123.2     73.46887                 -0.572324
13761 4128       73.5462                -0.573428
13777 4132.8     73.6191                -0.574184
13793 4137.6     73.71                -0.572602
13809 4142.4     73.7966                -0.571662
13825 4147.2     73.8859                -0.571658
13841 4152       73.9601                -0.572734
13857 4156.8     74.0341                -0.572154
13873 4161.6     74.1212                -0.572766
13889 4166.4     74.2094                -0.573685
13905 4171.2     74.3006                -0.57334
13921 4176       74.3734                -0.57335
13937 4180.8     74.4494                -0.573224
13953 4185.6     74.5421                -0.573772
13969 4190.4     74.6295                -0.575187
13985 4195.2     74.7159                -0.57112
14001 4200       74.7841                -0.573913
14017 4204.8     74.8649                -0.575953
14033 4209.6     74.9533                -0.572322
14049 4214.4     75.0433                -0.573551
14065 4219.2     75.1325                -0.572305
14081 4224       75.2064                -0.572797
14097 4228.8     75.28187                 -0.574325
14113 4233.6     75.3715                -0.569973
14129 4238.4     75.4577                -0.569659
14145 4243.2     75.5494                -0.571577
14161 4248       75.6213                -0.572115
14177 4252.8     75.6985                -0.572546
14193 4257.6     75.7834                -0.570094
14209 4262.4     75.8714                -0.570823
14225 4267.2     75.9606                -0.570056
14241 4272       76.0371                -0.571505
14257 4276.8     76.1142                -0.574261
14273 4281.6     76.20195                 -0.573291
14289 4286.4     76.2907                -0.571672
14305 4291.2     76.379                -0.569458
14321 4296       76.45273                 -0.569474
14337 4300.8     76.53                -0.570729
14353 4305.6     76.6144                -0.571048
14369 4310.4     76.7049                -0.570451
14385 4315.2     76.7936                -0.570719
14401 4320       76.87073                 -0.57091
14417 4324.8     76.9487                -0.572473
14433 4329.6     77.0323                -0.573503
14449 4334.4     77.1209                -0.570756
14465 4339.2     77.2084                -0.572052
14481 4344       77.28473                 -0.574434
14497 4348.8     77.365                -0.572825
14513 4353.6     77.4433                -0.573291
14529 4358.4     77.5348                -0.571595
14545 4363.2     77.6179                -0.570824
14561 4368       77.6983                -0.571632
14577 4372.8     77.78126                 -0.569756
14593 4377.6     77.86447                 -0.573707
14609 4382.4     77.9559                -0.571855
14625 4387.2     78.0335                -0.570912
14641 4392       78.108                -0.571452
14657 4396.8     78.1973                -0.572353
14673 4401.6     78.2763                -0.571121
14689 4406.4     78.3697                -0.571015
14705 4411.2     78.4525                -0.572155
14721 4416       78.5278                -0.573025
14737 4420.8     78.6151                -0.572119
14753 4425.6     78.6978                -0.56932
14769 4430.4     78.7847                -0.571072
14785 4435.2     78.8635                -0.572639
14801 4440       78.9389                -0.574227
14817 4444.8     79.0292                -0.57411
14833 4449.6     79.1106                -0.574219
14849 4454.4     79.2022                -0.570254
14865 4459.2     79.27863                 -0.563031
14881 4464       79.355                -0.564228
14897 4468.8     79.4478                -0.564072
14913 4473.6     79.5328                -0.562797
14929 4478.4     79.6202                -0.564196
14945 4483.2     79.6978                -0.564444
14961 4488       79.769                -0.565931
14977 4492.8     79.8585                -0.568239
14993 4497.6     79.9446                -0.566212
15001 4500       79.9884                -0.566987