File: rawdata/SM_LPS_in_H2O_c1.txt
SM_LPS_in_H2O
Creation Date : 12/20/2018 2:23:31 PM
User : PSCM

HeatFlow :
 Initial Mass : 497 mg
 Molar Mass : N/A

Index Time (s)   Furnace Temperature (Â°C) HeatFlow (mW)
1     0          83.0716                -0.21552
16    4.5        83.0474                -0.205144
31    9          83.3659                -0.198556
46    13.5       83.9575                -0.197551
61    18         84.3198                -0.203228
76    22.5       84.5323                -0.211685
91    27         84.5219                -0.225312
106   31.5       84.4565                -0.238782
121   36         84.4746                -0.256032
136   40.5       84.4785                -0.274403
151   45         84.4477                -0.293381
166   49.5       84.3994                -0.314201
181   54         84.3508                -0.332237
196   58.5       84.3231                -0.350472
211   63         84.2767                -0.365605
226   67.5       84.2192                -0.380562
241   72         84.1553                -0.391871
256   76.5       84.0926                -0.400464
271   81         84.0377                -0.409116
286   85.5       83.9784                -0.412016
301   90         83.9046                -0.414972
316   94.5       83.8405                -0.415052
331   99         83.7702                -0.412081
346   103.5      83.701                -0.408661
361   108        83.6373                -0.402487
376   112.5      83.5664                -0.391487
391   117        83.497                -0.381248
406   121.5      83.4221                -0.369503
421   126        83.348                -0.354636
436   130.5      83.2773                -0.339995
451   135        83.2044                -0.322258
466   139.5      83.131                -0.304345
481   144        83.0562                -0.288277
496   148.5      82.9814                -0.266918
511   153        82.9071                -0.247817
526   157.5      82.83206                 -0.228247
541   162        82.7565                -0.207572
556   166.5      82.6934                -0.186457
571   171        82.6843                -0.164382
586   175.5      82.6437                -0.143961
601   180        82.5641                -0.120907
616   184.5      82.4778                -0.097103
631   189        82.3947                -0.076648
646   193.5      82.3278                -0.056025
661   198        82.26591                 -0.033361
676   202.5      82.185                -0.01155
691   207        82.1027                0.008108
706   211.5      82.0262                0.027394
721   216        81.9511                0.047961
736   220.5      81.8805                0.06788
751   225        81.7924                0.08335
766   229.5      81.711                0.103595
781   234        81.6331                0.12024
796   238.5      81.5595                0.138392
811   243        81.48445                 0.156048
826   247.5      81.3937                0.171096
841   252        81.3122                0.186751
856   256.5      81.2405                0.201458
871   261        81.1624                0.212226
886   265.5      81.0841                0.228687
901   270        81.00267                 0.243667
916   274.5      80.9141                0.256211
931   279        80.835                0.270084
946   283.5      80.7563                0.281978
961   288        80.6827                0.291743
976   292.5      80.6064                0.304651
991   297        80.5157                0.316366
1006  301.5      80.4419                0.325304
1021  306        80.3572                0.33603
1036  310.5      80.2821                0.346069
1051  315        80.2031                0.357266
1066  319.5      80.1157                0.367212
1081  324        80.0387                0.375909
1096  328.5      79.952                0.386943
1111  333        79.8799                0.392165
1126  337.5      79.8007                0.399974
1141  342        79.7157                0.406586
1156  346.5      79.6357                0.413292
1171  351        79.5582                0.420231
1186  355.5      79.4799                0.42589
1201  360        79.4035                0.4322
1216  364.5      79.31582                 0.43898
1231  369        79.2363                0.446455
1246  373.5      79.15293                 0.451057
1261  378        79.0789                0.454576
1276  382.5      79.0082                0.458826
1291  387        78.9228                0.461119
1306  391.5      78.8391                0.465005
1321  396        78.7636                0.468046
1336  400.5      78.6875                0.473809
1351  405        78.6107                0.477239
1366  409.5      78.5271                0.478851
1381  414        78.4405                0.481344
1396  418.5      78.3606                0.485352
1411  423        78.2868                0.48504
1426  427.5      78.2102                0.483987
1441  432        78.1275                0.485197
1456  436.5      78.0441                0.487328
1471  441        77.9719                0.48728
1486  445.5      77.8925                0.489981
1501  450        77.81577                 0.497148
1516  454.5      77.7387                0.500223
1531  459        77.6524                0.504676
1546  463.5      77.5749                0.509999
1561  468        77.4905                0.515263
1576  472.5      77.4185                0.518207
1591  477        77.3492                0.524322
1606  481.5      77.2614                0.529299
1621  486        77.1807                0.534714
1636  490.5      77.1031                0.536393
1651  495        77.0233                0.540288
1666  499.5      76.9537                0.543913
1681  504        76.8672                0.54405
1696  508.5      76.7841                0.551016
1711  513        76.7041                0.553313
1726  517.5      76.6332                0.55509
1741  522        76.5606                0.557004
1756  526.5      76.4713                0.556093
1771  531        76.38916                 0.558762
1786  535.5      76.3174                0.560523
1801  540        76.2417                0.562646
1816  544.5      76.1649                0.563768
1831  549        76.0801                0.566432
1846  553.5      75.9942                0.567316
1861  558        75.9222                0.569027
1876  562.5      75.8423                0.572769
1891  567        75.7694                0.569575
1906  571.5      75.6958                0.575675
1921  576        75.6094                0.575206
1936  580.5      75.53306                 0.574355
1951  585        75.4524                0.575045
1966  589.5      75.3764                0.576551
1981  594        75.3036                0.578053
1996  598.5      75.2171                0.580473
2011  603        75.1366                0.582168
2026  607.5      75.0578                0.582687
2041  612        74.984                0.583115
2056  616.5      74.9131                0.583751
2071  621        74.8241                0.587013
2086  625.5      74.74288                 0.585982
2101  630        74.6712                0.586011
2116  634.5      74.5974                0.586804
2131  639        74.5198                0.586938
2146  643.5      74.4404                0.588926
2161  648        74.3533                0.58877
2176  652.5      74.27753                 0.587804
2191  657        74.1982                0.585331
2206  661.5      74.12734                 0.587771
2221  666        74.0538                0.585679
2236  670.5      73.9676                0.588615
2251  675        73.8893                0.588725
2266  679.5      73.8093                0.588079
2281  684        73.7358                0.588184
2296  688.5      73.6621                0.588069
2311  693        73.5755                0.588525
2326  697.5      73.4959                0.588074
2341  702        73.4145                0.587599
2356  706.5      73.3399                0.587368
2371  711        73.27055                 0.588935
2386  715.5      73.1823                0.587469
2401  720        73.10256                 0.588639
2416  724.5      73.0305                0.589785
2431  729        72.9562                0.58851
2446  733.5      72.8778                0.588698
2461  738        72.7932                0.587212
2476  742.5      72.7086                0.589489
2491  747        72.6379                0.591032
2506  751.5      72.5584                0.591848
2521  756        72.4869                0.591509
2536  760.5      72.4109                0.591582
2551  765        72.3246                0.591558
2566  769.5      72.2498                0.594255
2581  774        72.1685                0.5952
2596  778.5      72.095                0.594757
2611  783        72.02373                 0.596266
2626  787.5      71.9387                0.595744
2641  792        71.8559                0.595228
2656  796.5      71.7745                0.596688
2671  801        71.6999                0.599172
2686  805.5      71.6304                0.595682
2701  810        71.5435                0.594223
2716  814.5      71.4636                0.59338
2731  819        71.3908                0.595277
2746  823.5      71.3174                0.595404
2761  828        71.2394                0.593723
2776  832.5      71.1582                0.595223
2791  837        71.0738                0.593527
2806  841.5      70.9981                0.591673
2821  846        70.9202                0.594009
2836  850.5      70.84625                 0.590539
2851  855        70.7746                0.594528
2866  859.5      70.6859                0.591371
2881  864        70.6119                0.589911
2896  868.5      70.531                0.587606
2911  873        70.4566                0.587638
2926  877.5      70.3841                0.588157
2941  882        70.3002                0.587017
2956  886.5      70.2176                0.585131
2971  891        70.1353                0.585494
2986  895.5      70.0624                0.585664
3001  900        69.99385                 0.587297
3016  904.5      69.90577                 0.582125
3031  909        69.8247                0.581673
3046  913.5      69.7523                0.582057
3061  918        69.6772                0.57808
3076  922.5      69.6008                0.582651
3091  927        69.5149                0.579447
3106  931.5      69.4321                0.579584
3121  936        69.35905                 0.579497
3136  940.5      69.2812                0.579705
3151  945        69.2079                0.577368
3166  949.5      69.1327                0.576156
3181  954        69.0485                  0.574099
3196  958.5      68.9731                0.576425
3211  963        68.8898                0.57708
3226  967.5      68.8174                0.578256
3241  972        68.7411                0.576266
3256  976.5      68.6575                0.577466
3271  981        68.5774                0.57814
3286  985.5      68.4971                0.577283
3301  990        68.4233                0.579493
3316  994.5      68.3554                0.57931
3331  999        68.2657                0.57721
3346  1003.5     68.187                0.576721
3361  1008       68.1137                0.575296
3376  1012.5     68.0407                0.57605
3391  1017       67.9626                0.572477
3406  1021.5     67.8832                0.575978
3421  1026       67.7966                0.576456
3436  1030.5     67.7212                0.574707
3451  1035       67.6426                0.573061
3466  1039.5     67.5712                0.575223
3481  1044       67.4966                0.574496
3496  1048.5     67.411                0.572884
3511  1053       67.3354                0.572933
3526  1057.5     67.2528                0.572228
3541  1062       67.1787                0.572114
3556  1066.5     67.1105                0.570886
3571  1071       67.02649                 0.572924
3586  1075.5     66.9417                0.572553
3601  1080       66.85888                 0.570838
3616  1084.5     66.7845                0.571796
3631  1089       66.7166                0.570697
3646  1093.5     66.6307                0.569713
3661  1098       66.55034                 0.566329
3676  1102.5     66.4745                0.56862
3691  1107       66.4003                0.569667
3706  1111.5     66.3246                0.570521
3721  1116       66.2391                0.568337
3736  1120.5     66.1565                0.571285
3751  1125       66.0833                0.571385
3766  1129.5     66.0056                0.570848
3781  1134       65.9314                0.570509
3796  1138.5     65.8579                0.571482
3811  1143       65.7702                0.570478
3826  1147.5     65.6986                0.570241
3841  1152       65.617                0.568242
3856  1156.5     65.54222                 0.570313
3871  1161       65.47252                 0.57104
3886  1165.5     65.3855                0.569085
3901  1170       65.3041                0.569505
3916  1174.5     65.2226                0.570407
3931  1179       65.1484                0.567786
3946  1183.5     65.0772                0.567379
3961  1188       64.9911                0.569504
3976  1192.5     64.9113                0.569324
3991  1197       64.8404                0.56875
4006  1201.5     64.7659                0.569049
4021  1206       64.6876                0.571608
4036  1210.5     64.6065                0.570937
4051  1215       64.5222                0.568382
4066  1219.5     64.4467                0.570114
4081  1224       64.3684                0.571128
4096  1228.5     64.2949                0.57028
4111  1233       64.2205                0.571268
4126  1237.5     64.13256                 0.571559
4141  1242       64.0619                0.568166
4156  1246.5     63.9787                0.568894
4171  1251       63.9066                0.570536
4186  1255.5     63.8313                0.5666
4201  1260       63.7479                0.566637
4216  1264.5     63.6672                0.569033
4231  1269       63.5861                0.568736
4246  1273.5     63.5115                0.566538
4261  1278       63.4415                0.566975
4276  1282.5     63.3549                0.56461
4291  1287       63.2741                0.563397
4306  1291.5     63.2025                0.56471
4321  1296       63.1275                0.567966
4336  1300.5     63.0515                0.566015
4351  1305       62.9637                0.564399
4366  1309.5     62.88228                 0.566177
4381  1314       62.8092                0.564811
4396  1318.5     62.733                0.564924
4411  1323       62.6568                0.565963
4426  1327.5     62.582                0.566032
4441  1332       62.4966                0.565604
4456  1336.5     62.4251                0.564046
4471  1341       62.3434                0.565133
4486  1345.5     62.2693                0.5665
4501  1350       62.18943                 0.565286
4516  1354.5     62.1079                0.564988
4531  1359       62.029                0.563423
4546  1363.5     61.9479                0.562794
4561  1368       61.874                0.564495
4576  1372.5     61.8038                0.563055
4591  1377       61.718                0.562732
4606  1381.5     61.6364                0.562787
4621  1386       61.5649                0.561746
4636  1390.5     61.4895                0.563366
4651  1395       61.4158                0.562829
4666  1399.5     61.3324                0.561822
4681  1404       61.2485                0.561647
4696  1408.5     61.1675                0.561697
4711  1413       61.094                0.563161
4726  1417.5     61.02109                 0.563009
4741  1422       60.9461                0.563137
4756  1426.5     60.8582                0.562728
4771  1431       60.7892                0.559855
4786  1435.5     60.70549                 0.561058
4801  1440       60.6314                0.562754
4816  1444.5     60.5532                0.562134
4831  1449       60.4697                0.559467
4846  1453.5     60.3938                0.560393
4861  1458       60.31                0.561873
4876  1462.5     60.2395                0.558238
4891  1467       60.1683                0.55669
4906  1471.5     60.083                0.556903
4921  1476       60.0011                0.556328
4936  1480.5     59.9268                0.557345
4951  1485       59.8527                0.556425
4966  1489.5     59.7801                0.555482
4981  1494       59.6891                0.555268
4996  1498.5     59.6086                0.556592
5011  1503       59.5332                0.554102
5026  1507.5     59.4604                0.554235
5041  1512       59.3852                0.555769
5056  1516.5     59.3075                0.554199
5071  1521       59.2212                0.556508
5086  1525.5     59.1523                0.554878
5101  1530       59.0698                0.553084
5116  1534.5     58.996                0.554727
5131  1539       58.9204                0.553531
5146  1543.5     58.8371                0.554624
5161  1548       58.7596                0.551919
5176  1552.5     58.6738                0.553834
5191  1557       58.6029                0.550989
5206  1561.5     58.5284                0.550955
5221  1566       58.4444                0.55194
5236  1570.5     58.3651                0.551131
5251  1575       58.292                0.550005
5266  1579.5     58.2148                0.549127
5281  1584       58.1452                0.549986
5296  1588.5     58.0595                0.547823
5311  1593       57.9767                0.548168
5326  1597.5     57.89721                 0.549554
5341  1602       57.8223                0.549326
5356  1606.5     57.7472                0.549778
5371  1611       57.6711                0.54772
5386  1615.5     57.5853                0.550316
5401  1620       57.5161                0.54833
5416  1624.5     57.4343                0.547978
5431  1629       57.3609                0.548065
5446  1633.5     57.28027                 0.547244
5461  1638       57.1926                0.548637
5476  1642.5     57.1213                0.547223
5491  1647       57.0371                0.547133
5506  1651.5     56.9664                0.546792
5521  1656       56.8928                0.548207
5536  1660.5     56.8093                0.546685
5551  1665       56.728                0.546638
5566  1669.5     56.6519                0.546205
5581  1674       56.5767                0.54348
5596  1678.5     56.5031                0.541954
5611  1683       56.4177                0.54646
5626  1687.5     56.3396                0.545056
5641  1692       56.2598                0.544852
5656  1696.5     56.1868                0.54679
5671  1701       56.1141                0.543741
5686  1705.5     56.033                0.548018
5701  1710       55.9497                0.546388
5716  1714.5     55.8791                0.546313
5731  1719       55.7991                0.548714
5746  1723.5     55.7241                0.549192
5761  1728       55.6405                0.548779
5776  1732.5     55.555                0.546291
5791  1737       55.4844                0.546967
5806  1741.5     55.401                0.547686
5821  1746       55.3305                0.549303
5836  1750.5     55.2538                0.549208
5851  1755       55.1704                0.548168
5866  1759.5     55.0943                0.546944
5881  1764       55.0154                0.547257
5896  1768.5     54.94                0.548196
5911  1773       54.8703                0.546774
5926  1777.5     54.7878                0.547133
5941  1782       54.70471                 0.546007
5956  1786.5     54.6208                0.548062
5971  1791       54.5498                0.547672
5986  1795.5     54.4787                  0.548306
6001  1800       54.39549                 0.551058
6016  1804.5     54.3122                0.546545
6031  1809       54.2435                0.547214
6046  1813.5     54.1644                0.547893
6061  1818       54.0866                0.546726
6076  1822.5     54.0085                0.54385
6091  1827       53.9242                0.545281
6106  1831.5     53.85                0.544735
6121  1836       53.7665                0.545505
6136  1840.5     53.6945                0.546912
6151  1845       53.6157                0.546895
6166  1849.5     53.5332                0.546768
6181  1854       53.4588                0.544743
6196  1858.5     53.3818                0.544346
6211  1863       53.3063                0.543954
6226  1867.5     53.2311                0.543282
6241  1872       53.1443                0.544686
6256  1876.5     53.0667                0.544848
6271  1881       52.9853                0.544423
6286  1885.5     52.9122                0.5441
6301  1890       52.8417                0.543381
6316  1894.5     52.7595                0.543246
6331  1899       52.6775                0.545383
6346  1903.5     52.6044                0.5422
6361  1908       52.5279                0.544756
6376  1912.5     52.4528                0.546713
6391  1917       52.3741                0.546022
6406  1921.5     52.28815                 0.549328
6421  1926       52.2128                0.550289
6436  1930.5     52.1325                0.547228
6451  1935       52.05987                 0.546782
6466  1939.5     51.982                0.548473
6481  1944       51.89701                 0.550227
6496  1948.5     51.8248                0.547939
6511  1953       51.7436                0.548104
6526  1957.5     51.6707                0.547578
6541  1962       51.5999                0.548213
6556  1966.5     51.516                0.547562
6571  1971       51.4325                0.54714
6586  1975.5     51.3525                0.549474
6601  1980       51.2757                0.548848
6616  1984.5     51.2093                0.550118
6631  1989       51.1241                0.548193
6646  1993.5     51.0442                0.549474
6661  1998       50.9691                0.547726
6676  2002.5     50.8941                0.547691
6691  2007       50.8196                0.547484
6706  2011.5     50.737                0.548291
6721  2016       50.6532                0.546584
6736  2020.5     50.57784                 0.546378
6751  2025       50.4986                0.548407
6766  2029.5     50.4241                0.544656
6781  2034       50.3433                0.542372
6796  2038.5     50.2584                0.545243
6811  2043       50.1906                0.546068
6826  2047.5     50.1086                0.547116
6841  2052       50.0363                0.546199
6856  2056.5     49.95736                 0.54499
6871  2061       49.87392                 0.546984
6886  2065.5     49.7962                0.545947
6901  2070       49.7127                0.547587
6916  2074.5     49.641                0.546436
6931  2079       49.5728                0.5465
6946  2083.5     49.4922                0.546791
6961  2088       49.4093                0.548019
6976  2092.5     49.3336                0.548285
6991  2097       49.25603                 0.548744
7006  2101.5     49.1834                0.548131
7021  2106       49.0958                0.547857
7036  2110.5     49.01579                 0.548185
7051  2115       48.9387                0.548374
7066  2119.5     48.8634                0.5471
7081  2124       48.78957                 0.548417
7096  2128.5     48.7064                0.549323
7111  2133       48.6256                0.547865
7126  2137.5     48.5567                0.546117
7141  2142       48.4757                0.545657
7156  2146.5     48.4027                0.546097
7171  2151       48.3279                0.545707
7186  2155.5     48.2426                0.545342
7201  2160       48.1647                0.545447
7216  2164.5     48.0787                0.546266
7231  2169       48.008                0.546455
7246  2173.5     47.9394                0.546444
7261  2178       47.858                0.547865
7276  2182.5     47.7746                0.547054
7291  2187       47.6982                0.547307
7306  2191.5     47.623                0.547559
7321  2196       47.5502                0.545326
7336  2200.5     47.462                0.545156
7351  2205       47.3824                0.546471
7366  2209.5     47.3036                0.546849
7381  2214       47.2315                0.546407
7396  2218.5     47.1573                0.547308
7411  2223       47.0721                0.546986
7426  2227.5     46.9901                0.546112
7441  2232       46.9203                0.543025
7456  2236.5     46.8411                0.543347
7471  2241       46.7668                0.546562
7486  2245.5     46.6844                  0.544057
7501  2250       46.60061                 0.546991
7516  2254.5     46.5284                0.545973
7531  2259       46.4452                0.544149
7546  2263.5     46.3739                0.545681
7561  2268       46.3008                0.54585
7576  2272.5     46.2193                0.546303
7591  2277       46.1386                0.547011
7606  2281.5     46.0615                0.54954
7621  2286       45.984                0.547466
7636  2290.5     45.9155                0.54734
7651  2295       45.8314                0.547799
7666  2299.5     45.75                0.549031
7681  2304       45.6682                0.550096
7696  2308.5     45.595                0.548909
7711  2313       45.5227                0.548734
7726  2317.5     45.4347                0.550808
7741  2322       45.3553                0.549628
7756  2326.5     45.28359                 0.548363
7771  2331       45.2083                0.549152
7786  2335.5     45.1316                0.550325
7801  2340       45.05445                 0.548274
7816  2344.5     44.9678                0.549894
7831  2349       44.89496                 0.551567
7846  2353.5     44.8111                0.549421
7861  2358       44.73921                 0.550565
7876  2362.5     44.6648                0.548757
7891  2367       44.5835                0.5506
7906  2371.5     44.5056                0.551359
7921  2376       44.4258                0.551567
7936  2380.5     44.3506                  0.54882
7951  2385       44.2811                0.548274
7966  2389.5     44.1951                0.549391
7981  2394       44.1123                0.551697
7996  2398.5     44.0304                0.549077
8011  2403       43.957                0.549846
8026  2407.5     43.88614                 0.549539
8041  2412       43.8013                0.550286
8056  2416.5     43.72193                 0.549559
8071  2421       43.6472                0.547387
8086  2425.5     43.57178                 0.549301
8101  2430       43.4974                0.547093
8116  2434.5     43.4106                0.549124
8131  2439       43.3297                0.546845
8146  2443.5     43.2531                0.547303
8161  2448       43.1779                0.548001
8176  2452.5     43.1026                0.547072
8191  2457       43.0252                0.547408
8206  2461.5     42.9414                0.547471
8221  2466       42.8723                0.546084
8236  2470.5     42.79                0.549432
8251  2475       42.7163                0.549931
8266  2479.5     42.6359                0.548144
8281  2484       42.553                0.549257
8296  2488.5     42.4783                0.548429
8311  2493       42.3916                0.550754
8326  2497.5     42.3206                0.549532
8341  2502       42.2488                0.550933
8356  2506.5     42.1645                0.548669
8371  2511       42.0843                0.548798
8386  2515.5     42.00893                 0.545876
8401  2520       41.9349                0.547256
8416  2524.5     41.8643                0.546994
8431  2529       41.7782                0.54759
8446  2533.5     41.6977                0.546644
8461  2538       41.6161                0.548228
8476  2542.5     41.5423                0.549545
8491  2547       41.4678                0.548218
8506  2551.5     41.3906                0.548669
8521  2556       41.30666                 0.546808
8536  2560.5     41.2357                0.546389
8551  2565       41.1554                0.546396
8566  2569.5     41.0808                0.547606
8581  2574       41.00579                 0.547479
8596  2578.5     40.9209                0.547582
8611  2583       40.84421                 0.548517
8626  2587.5     40.7583                0.547668
8641  2592       40.6872                0.546855
8656  2596.5     40.6092                0.546549
8671  2601       40.5282                0.547832
8686  2605.5     40.449                0.547509
8701  2610       40.373                0.547244
8716  2614.5     40.2987                0.547853
8731  2619       40.2254                0.548012
8746  2623.5     40.1404                0.548812
8761  2628       40.0584                0.548767
8776  2632.5     39.97828                 0.548219
8791  2637       39.9062                0.547535
8806  2641.5     39.8358                0.547116
8821  2646       39.754                0.550033
8836  2650.5     39.67012                 0.549816
8851  2655       39.5989                0.549959
8866  2659.5     39.5204                0.549515
8881  2664       39.4442                0.548476
8896  2668.5     39.369                0.550153
8911  2673       39.2824                0.549047
8926  2677.5     39.2088                0.547924
8941  2682       39.1261                0.550349
8956  2686.5     39.0514                0.549699
8971  2691       38.9714                0.549969
8986  2695.5     38.8898                0.54962
9001  2700       38.817                0.54994
9016  2704.5     38.73655                 0.548699
9031  2709       38.663                0.54895
9046  2713.5     38.5913                0.549714
9061  2718       38.5072                0.54947
9076  2722.5     38.4276                0.550225
9091  2727       38.3423                0.550281
9106  2731.5     38.2692                  0.55196
9121  2736       38.2001                0.549521
9136  2740.5     38.1175                0.55037
9151  2745       38.03877                 0.55016
9166  2749.5     37.9637                0.548159
9181  2754       37.8868                0.54736
9196  2758.5     37.8102                0.549789
9211  2763       37.7275                0.550651
9226  2767.5     37.6442                0.548812
9241  2772       37.5674                0.550308
9256  2776.5     37.4904                0.549263
9271  2781       37.4156                0.547026
9286  2785.5     37.33423                 0.547304
9301  2790       37.2527                0.54683
9316  2794.5     37.183                0.548273
9331  2799       37.1019                0.547098
9346  2803.5     37.03                0.545815
9361  2808       36.9491                0.548211
9376  2812.5     36.86532                 0.547117
9391  2817       36.7902                0.546799
9406  2821.5     36.7043                0.545325
9421  2826       36.6344                0.547259
9436  2830.5     36.5656                0.54728
9451  2835       36.4831                0.547732
9466  2839.5     36.3995                0.548165
9481  2844       36.3255                0.547747
9496  2848.5     36.2481                0.548708
9511  2853       36.175                0.551337
9526  2857.5     36.088                0.548321
9541  2862       36.01                0.547685
9556  2866.5     35.9304                0.548512
9571  2871       35.8584                  0.547734
9586  2875.5     35.7828                0.54825
9601  2880       35.6982                0.547868
9616  2884.5     35.6163                0.54792
9631  2889       35.5464                0.547233
9646  2893.5     35.4692                0.547509
9661  2898       35.3927                0.546633
9676  2902.5     35.3157                0.544416
9691  2907       35.2303                0.544461
9706  2911.5     35.1564                0.545596
9721  2916       35.0728                0.546359
9736  2920.5     34.9999                0.546976
9751  2925       34.9267                0.546165
9766  2929.5     34.8465                0.545625
9781  2934       34.7686                0.546235
9796  2938.5     34.6895                0.544362
9811  2943       34.615                0.54581
9826  2947.5     34.5402                0.546341
9841  2952       34.4554                0.545014
9856  2956.5     34.3756                0.545514
9871  2961       34.2921                0.545756
9886  2965.5     34.2199                0.545989
9901  2970       34.1496                0.546057
9916  2974.5     34.0631                0.544487
9931  2979       33.9818                0.544556
9946  2983.5     33.9098                0.546387
9961  2988       33.8359                0.544152
9976  2992.5     33.7577                0.54477
9991  2997       33.6729                0.54491
10006 3001.5     33.5943                0.545666
10021 3006       33.51677                 0.546131
10036 3010.5     33.43822                 0.547485
10051 3015       33.3651                0.547527
10066 3019.5     33.2893                0.546691
10081 3024       33.206                0.547627
10096 3028.5     33.136                0.548991
10111 3033       33.0522                0.547783
10126 3037.5     32.9788                0.548228
10141 3042       32.9058                0.549438
10156 3046.5     32.8218                0.548871
10171 3051       32.7428                0.548531
10186 3055.5     32.6584                0.548615
10201 3060       32.5849                0.548389
10216 3064.5     32.5116                0.549414
10231 3069       32.4292                0.550011
10246 3073.5     32.3482                0.549464
10261 3078       32.2732                0.549579
10276 3082.5     32.1985                0.549362
10291 3087       32.1276                0.548947
10306 3091.5     32.0447                0.54768
10321 3096       31.9619                0.547501
10336 3100.5     31.8823                0.548547
10351 3105       31.8067                0.548043
10366 3109.5     31.7334                0.547306
10381 3114       31.6542                0.547878
10396 3118.5     31.5728                0.547723
10411 3123       31.501                0.550316
10426 3127.5     31.4219                0.549604
10441 3132       31.3463                0.549292
10456 3136.5     31.2632                0.54739
10471 3141       31.1786                0.548118
10486 3145.5     31.1052                0.549364
10501 3150       31.0229                0.547373
10516 3154.5     30.9512                0.547039
10531 3159       30.8721                0.545266
10546 3163.5     30.7909                0.545354
10561 3168       30.7159                0.546836
10576 3172.5     30.6388                0.54592
10591 3177       30.56413                 0.544346
10606 3181.5     30.4896                0.543676
10621 3186       30.4045                0.544256
10636 3190.5     30.3235                0.54373
10651 3195       30.2428                0.543935
10666 3199.5     30.1686                0.543782
10681 3204       30.1016                0.544235
10696 3208.5     30.0182                0.544098
10711 3213       29.9382                0.543799
10726 3217.5     29.8634                0.542234
10741 3222       29.7872                0.543645
10756 3226.5     29.71                0.544858
10771 3231       29.6262                0.544688
10786 3235.5     29.5451                0.544378
10801 3240       29.4662                0.546139
10816 3244.5     29.3913                0.546086
10831 3249       29.3165                0.544626
10846 3253.5     29.23603                 0.544877
10861 3258       29.15247                 0.543463
10876 3262.5     29.0855                0.543227
10891 3267       29.0029                0.54451
10906 3271.5     28.9278                0.544441
10921 3276       28.8543                0.542294
10936 3280.5     28.7732                0.541733
10951 3285       28.6931                0.542215
10966 3289.5     28.6085                0.543019
10981 3294       28.5343                0.543223
10996 3298.5     28.46778                 0.543138
11011 3303       28.3851                0.541031
11026 3307.5     28.305                0.541721
11041 3312       28.2281                0.542349
11056 3316.5     28.1521                0.540241
11071 3321       28.0784                0.53956
11086 3325.5     27.9942                0.540428
11101 3330       27.9146                0.541117
11116 3334.5     27.8359                0.540477
11131 3339       27.7594                0.539132
11146 3343.5     27.6852                0.540471
11161 3348       27.5992                0.541401
11176 3352.5     27.5207                0.539233
11191 3357       27.4512                0.540161
11206 3361.5     27.3722                0.540347
11221 3366       27.2959                0.540736
11236 3370.5     27.2134                0.539156
11251 3375       27.13039                 0.540232
11266 3379.5     27.0567                0.541028
11281 3384       26.9759                0.540336
11296 3388.5     26.9025                0.541909
11311 3393       26.8292                0.543307
11326 3397.5     26.749                0.541666
11341 3402       26.671                0.541797
11356 3406.5     26.5903                0.542078
11371 3411       26.5154                0.541747
11386 3415.5     26.44569                 0.542823
11401 3420       26.364                0.544881
11416 3424.5     26.2814                0.54306
11431 3429       26.1978                0.543879
11446 3433.5     26.1213                0.543839
11461 3438       26.0502                0.543326
11476 3442.5     25.9655                0.543849
11491 3447       25.8868                0.543792
11506 3451.5     25.8141                0.543498
11521 3456       25.738                0.543276
11536 3460.5     25.6635                0.542388
11551 3465       25.5835                0.542832
11566 3469.5     25.501                0.543344
11581 3474       25.42244                 0.542003
11596 3478.5     25.3455                0.544487
11611 3483       25.2706                0.544378
11626 3487.5     25.1945                0.544528
11641 3492       25.1095                0.54454
11656 3496.5     25.041                0.542809
11671 3501       24.9575                0.543718
11686 3505.5     24.8834                0.543173
11701 3510       24.8053                0.54275
11716 3514.5     24.7229                0.542596
11731 3519       24.6483                0.542876
11746 3523.5     24.5605                0.541619
11761 3528       24.4893                0.542926
11776 3532.5     24.4149                0.542808
11791 3537       24.3319                0.541959
11806 3541.5     24.2539                0.541761
11821 3546       24.1775                0.542601
11836 3550.5     24.1009                0.541779
11851 3555       24.02941                 0.542218
11866 3559.5     23.9444                0.541892
11881 3564       23.8655                0.543484
11896 3568.5     23.7836                0.542946
11911 3573       23.7082                0.543287
11926 3577.5     23.6369                0.54318
11941 3582       23.5561                0.543714
11956 3586.5     23.4772                0.543782
11971 3591       23.4056                0.543548
11986 3595.5     23.3255                0.544446
12001 3600       23.2492                0.546329
12016 3604.5     23.1658                0.547429
12031 3609       23.0828                0.546983
12046 3613.5     23.0111                0.548016
12061 3618       22.9299                0.547676
12076 3622.5     22.8575                0.548568
12091 3627       22.77789                 0.549928
12106 3631.5     22.6941                0.549008
12121 3636       22.6228                0.548383
12136 3640.5     22.5418                0.548115
12151 3645       22.4698                0.549485
12166 3649.5     22.3985                0.548737
12181 3654       22.3149                0.549589
12196 3658.5     22.2344                0.550931
12211 3663       22.1512                0.549216
12226 3667.5     22.07659                 0.550544
12241 3672       22.0083                0.550218
12256 3676.5     21.9263                0.55006
12271 3681       21.84549                 0.550906
12286 3685.5     21.7705                0.550536
12301 3690       21.6954                0.549821
12316 3694.5     21.6201                0.550738
12331 3699       21.5343                0.55111
12346 3703.5     21.4544                0.552256
12361 3708       21.375                0.55039
12376 3712.5     21.3005                0.551969
12391 3717       21.2252                0.551922
12406 3721.5     21.1442                0.55104
12421 3726       21.06154                 0.552288
12436 3730.5     20.9922                0.550801
12451 3735       20.9119                  0.551701
12466 3739.5     20.8377                0.550889
12481 3744       20.7579                0.551114
12496 3748.5     20.6726                0.551261
12511 3753       20.5994                0.553224
12526 3757.5     20.5157                0.553357
12541 3762       20.4436                0.552178
12556 3766.5     20.3714                0.554388
12571 3771       20.2913                0.553902
12586 3775.5     20.2124                0.554201
12601 3780       20.1349                0.555318
12616 3784.5     20.058                0.55432
12631 3789       19.9879                0.554461
12646 3793.5     19.9055                0.555456
12661 3798       19.8246                0.555129
12676 3802.5     19.7426                0.556486
12691 3807       19.6669                0.556715
12706 3811.5     19.5957                0.555607
12721 3816       19.5084                0.55547
12736 3820.5     19.4316                0.555629
12751 3825       19.3594                0.555707
12766 3829.5     19.2818                0.55589
12781 3834       19.2048                0.556514
12796 3838.5     19.1274                0.556851
12811 3843       19.0465                0.557088
12826 3847.5     18.9711                0.558246
12841 3852       18.8906                0.5577
12856 3856.5     18.81464                 0.557319
12871 3861       18.7402                0.558468
12886 3865.5     18.6556                0.557961
12901 3870       18.5862                0.557549
12916 3874.5     18.5021                0.558481
12931 3879       18.4293                0.559753
12946 3883.5     18.3554                0.558726
12961 3888       18.2734                0.558758
12976 3892.5     18.1966                0.558833
12991 3897       18.1114                0.558015
13006 3901.5     18.0385                  0.559028
13021 3906       17.9613                0.558101
13036 3910.5     17.8796                0.557584
13051 3915       17.79996                 0.557308
13066 3919.5     17.7251                0.555904
13081 3924       17.6493                0.555577
13096 3928.5     17.5776                0.556408
13111 3933       17.4906                0.556214
13126 3937.5     17.4124                0.556673
13141 3942       17.3317                0.557713
13156 3946.5     17.2576                0.557303
13171 3951       17.1839                0.557464
13186 3955.5     17.1045                0.558392
13201 3960       17.0224                0.557844
13216 3964.5     16.9523                0.557474
13231 3969       16.87419                 0.558
13246 3973.5     16.79935                 0.556633
13261 3978       16.7161                0.558611
13276 3982.5     16.63217                 0.556994
13291 3987       16.5603                0.556625
13306 3991.5     16.4795                0.558193
13321 3996       16.405                0.558939
13336 4000.5     16.3259                0.558608
13351 4005       16.2431                0.557666
13366 4009.5     16.1718                0.558312
13381 4014       16.08982                 0.559346
13396 4018.5     16.0169                0.558744
13411 4023       15.9457                0.558819
13426 4027.5     15.8642                0.55955
13441 4032       15.7829                0.559389
13456 4036.5     15.7008                0.557877
13471 4041       15.6254                0.559007
13486 4045.5     15.558                0.55899
13501 4050       15.476                0.559186
13516 4054.5     15.3953                0.559609
13531 4059       15.3206                0.558748
13546 4063.5     15.2462                0.558625
13561 4068       15.1714                0.559579
13576 4072.5     15.0893                0.559112
13591 4077       15.0084                0.559115
13606 4081.5     14.9319                0.55904
13621 4086       14.8552                0.557967
13636 4090.5     14.7786                0.55862
13651 4095       14.6969                0.558424
13666 4099.5     14.6147                0.558602
13681 4104       14.547                0.557085
13696 4108.5     14.46492                 0.557477
13711 4113       14.3918                0.558221
13726 4117.5     14.3122                0.558088
13741 4122       14.2313                0.558291
13756 4126.5     14.1569                0.558594
13771 4131       14.0709                0.559571
13786 4135.5     13.9995                0.55881
13801 4140       13.9272                0.559337
13816 4144.5     13.8468                0.560206
13831 4149       13.7665                0.55961
13846 4153.5     13.6908                0.561234
13861 4158       13.6144                0.56127
13876 4162.5     13.5463                0.561322
13891 4167       13.4618                0.561338
13906 4171.5     13.3853                0.56192
13921 4176       13.3048                0.562134
13936 4180.5     13.2274                0.562115
13951 4185       13.1542                0.562917
13966 4189.5     13.0686                0.562558
13981 4194       12.9883                0.561885
13996 4198.5     12.91787                 0.562663
14011 4203       12.8413                0.562761
14026 4207.5     12.7658                0.561175
14041 4212       12.6891                0.562455
14056 4216.5     12.6058                0.563478
14071 4221       12.5337                0.562011
14086 4225.5     12.451                0.562919
14101 4230       12.3781                0.562449
14116 4234.5     12.3016                0.563294
14131 4239       12.2221                0.563189
14146 4243.5     12.1469                0.562128
14161 4248       12.0662                0.562213
14176 4252.5     11.9927                0.563003
14191 4257       11.9205                0.562911
14206 4261.5     11.8368                0.562047
14221 4266       11.7574                0.562203
14236 4270.5     11.6759                0.562298
14251 4275       11.5996                0.562474
14266 4279.5     11.5298                0.561321
14281 4284       11.445                0.561727
14296 4288.5     11.36705                 0.56098
14311 4293       11.2946                0.561228
14326 4297.5     11.2195                0.562035
14341 4302       11.1446                0.560667
14356 4306.5     11.0592                0.562232
14371 4311       10.9788                0.562997
14386 4315.5     10.9059                0.562949
14401 4320       10.8289                0.562615
14416 4324.5     10.753                0.562246
14431 4329       10.6782                0.563342
14446 4333.5     10.5955                0.564142
14461 4338       10.527                0.564846
14476 4342.5     10.4448                0.565396
14491 4347       10.37231                 0.565624
14506 4351.5     10.2957                  0.5663
14521 4356       10.21438                 0.565471
14536 4360.5     10.1383                0.566884
14551 4365       10.055                0.567049
14566 4369.5     9.982737                 0.567076
14581 4374       9.909296                 0.566948
14596 4378.5     9.827962                 0.567498
14611 4383       9.749389                 0.567767
14626 4387.5     9.675465                 0.568489
14641 4392       9.601949                 0.569053
14656 4396.5     9.531652                 0.568852
14671 4401       9.450892                 0.570415
14686 4405.5     9.370828                 0.56959
14701 4410       9.292823                 0.571113
14716 4414.5     9.219372                 0.571785
14731 4419       9.144088                 0.571254
14746 4423.5     9.07185                  0.572321
14761 4428       8.987894                 0.573665
14776 4432.5     8.919915                 0.574455
14791 4437       8.839357                 0.574063
14806 4441.5     8.768009                 0.575513
14821 4446       8.689622                 0.576638
14836 4450.5     8.61333                  0.578204
14851 4455       8.534978                 0.579984
14866 4459.5     8.452448                 0.582338
14881 4464       8.382036                 0.58337
14896 4468.5     8.312245                 0.585457
14911 4473       8.230052                 0.586752
14926 4477.5     8.153046                 0.589528
14941 4482       8.080992                 0.59145
14956 4486.5     8.008313                 0.592493
14971 4491       7.935608                 0.595694
14986 4495.5     7.852969                 0.597278
15001 4500       7.774359                 0.599808