File: rawdata/SM_LPS_in_H2O_h1.txt
SM_LPS_in_H2O
Creation Date : 12/20/2018 2:23:08 PM
User : PSCM

HeatFlow :
 Initial Mass : 497 mg
 Molar Mass : N/A

Index Time (s)   Furnace Temperature (Â°C) HeatFlow (mW)
1     0          4.32838                  0.181097
17    4.8        4.413955                 0.166069
33    9.6        4.399104                 0.153164
49    14.4       3.999097                 0.14417
65    19.2       3.758351                 0.140838
81    24         3.582161                 0.144282
97    28.8       3.438939                 0.153424
113   33.6       3.405556                 0.168455
129   38.4       3.342682                 0.187186
145   43.2       3.311878                 0.209831
161   48         3.331715                 0.233734
177   52.8       3.337461                 0.259179
193   57.6       3.371129                 0.284394
209   62.4       3.391851                 0.308335
225   67.2       3.432747                 0.331131
241   72         3.483429                 0.35184
257   76.8       3.530372                 0.370161
273   81.6       3.58119                  0.386206
289   86.4       3.632033                 0.399092
305   91.2       3.696278                 0.409218
321   96         3.757771                 0.417069
337   100.8      3.820866                 0.421365
353   105.6      3.884788                 0.423611
369   110.4      3.953918                 0.422829
385   115.2      4.026265                 0.4191
401   120        4.095854                 0.413387
417   124.8      4.169071                 0.406081
433   129.6      4.240394                 0.395581
449   134.4      4.31618                  0.383886
465   139.2      4.392843                 0.369895
481   144        4.469499                 0.354592
497   148.8      4.54687                  0.337924
513   153.6      4.625347                 0.31955
529   158.4      4.704314                 0.299588
545   163.2      4.783785                 0.279342
561   168        4.829364                 0.258026
577   172.8      4.839874                 0.236743
593   177.6      4.873422                 0.214934
609   182.4      4.933531                 0.19275
625   187.2      4.999461                 0.169915
641   192        5.07242                  0.146967
657   196.8      5.149543                 0.12364
673   201.6      5.231655                 0.100749
689   206.4      5.318159                 0.076456
705   211.2      5.393653                 0.053545
721   216        5.471871                 0.030113
737   220.8      5.55985                  0.007457
753   225.6      5.645102                 -0.015411
769   230.4      5.73752                  -0.037797
785   235.2      5.817273                 -0.060932
801   240        5.89946                  -0.083116
817   244.8      5.980596                 -0.104975
833   249.6      6.073894                 -0.1269
849   254.4      6.161836                 -0.146626
865   259.2      6.246991                 -0.166026
881   264        6.343259                 -0.184443
897   268.8      6.430746                 -0.203289
913   273.6      6.523855                 -0.221132
929   278.4      6.602277                 -0.238203
945   283.2      6.689167                 -0.253896
961   288        6.774873                 -0.269931
977   292.8      6.870143                 -0.285279
993   297.6      6.965817                 -0.299592
1009  302.4      7.048887                 -0.313785
1025  307.2      7.144494                 -0.327032
1041  312        7.230712                 -0.33962
1057  316.8      7.324541                 -0.351776
1073  321.6      7.402156                 -0.364721
1089  326.4      7.491062                 -0.376171
1105  331.2      7.575938                 -0.38756
1121  336        7.668748                 -0.399128
1137  340.8      7.759477                 -0.409866
1153  345.6      7.844804                 -0.420865
1169  350.4      7.940194                 -0.429777
1185  355.2      8.026962                 -0.439185
1201  360        8.120537                 -0.448224
1217  364.8      8.203282                 -0.456779
1233  369.6      8.286386                 -0.464057
1249  374.4      8.371528                 -0.47196
1265  379.2      8.461238                 -0.47988
1281  384        8.5565                   -0.48787
1297  388.8      8.641652                 -0.494475
1313  393.6      8.730159                 -0.50102
1329  398.4      8.814913                 -0.50798
1345  403.2      8.905103                 -0.514222
1361  408        8.989974                 -0.521013
1377  412.8      9.068349                 -0.52642
1393  417.6      9.156827                 -0.531809
1409  422.4      9.246209                 -0.536241
1425  427.2      9.338222                 -0.542289
1441  432        9.418343                 -0.547002
1457  436.8      9.501733                 -0.551697
1473  441.6      9.591977                 -0.554477
1489  446.4      9.682234                 -0.558395
1505  451.2      9.765863                 -0.560309
1521  456        9.847138                 -0.562913
1537  460.8      9.936242                 -0.564931
1553  465.6      10.0149                -0.565968
1569  470.4      10.109                -0.569049
1585  475.2      10.1973                -0.56979
1601  480        10.2775                -0.572255
1617  484.8      10.367                -0.573412
1633  489.6      10.4548                -0.574519
1649  494.4      10.545                -0.574925
1665  499.2      10.6224                -0.577213
1681  504        10.7055                -0.577807
1697  508.8      10.7857                -0.578448
1713  513.6      10.8732                -0.580297
1729  518.4      10.9634                -0.580952
1745  523.2      11.0454                -0.581659
1761  528        11.1281                -0.58201
1777  532.8      11.215                -0.582416
1793  537.6      11.3039                -0.583089
1809  542.4      11.3903                -0.582277
1825  547.2      11.4675                -0.582637
1841  552        11.5554                -0.582786
1857  556.8      11.634                -0.582351
1873  561.6      11.726                -0.581618
1889  566.4      11.8109                -0.583263
1905  571.2      11.89                -0.583617
1921  576        11.9794                -0.584008
1937  580.8      12.0638                -0.583763
1953  585.6      12.1532                -0.584488
1969  590.4      12.2305                -0.584859
1985  595.2      12.3116                -0.58485
2001  600        12.3931                -0.585634
2017  604.8      12.4794                  -0.586161
2033  609.6      12.569                -0.585804
2049  614.4      12.6489                -0.586178
2065  619.2      12.7308                -0.586971
2081  624        12.8181                -0.586519
2097  628.8      12.9036                -0.585694
2113  633.6      12.98698                 -0.586056
2129  638.4      13.0662                -0.585523
2145  643.2      13.1518                -0.584867
2161  648        13.2281                -0.584881
2177  652.8      13.3223                -0.584303
2193  657.6      13.4101                -0.584045
2209  662.4      13.48596                 -0.584434
2225  667.2      13.5753                -0.583649
2241  672        13.6583                -0.583347
2257  676.8      13.7455                -0.582141
2273  681.6      13.8216                -0.582019
2289  686.4      13.9019                -0.582365
2305  691.2      13.9867                -0.582155
2321  696        14.0749                -0.582028
2337  700.8      14.1637                -0.58253
2353  705.6      14.2375                -0.582422
2369  710.4      14.3199                -0.583694
2385  715.2      14.4099                -0.584431
2401  720        14.4936                -0.583881
2417  724.8      14.5851                -0.584024
2433  729.6      14.6617                -0.583532
2449  734.4      14.7396                -0.584267
2465  739.2      14.8185                -0.5821
2481  744        14.9088                -0.5823
2497  748.8      14.9991                -0.583334
2513  753.6      15.0785                -0.582697
2529  758.4      15.1611                -0.583418
2545  763.2      15.2418                -0.583787
2561  768        15.3308                -0.583101
2577  772.8      15.4123                -0.582394
2593  777.6      15.4883                -0.582378
2609  782.4      15.5753                -0.583112
2625  787.2      15.6542                -0.583995
2641  792        15.7471                -0.583717
2657  796.8      15.8279                -0.583661
2673  801.6      15.9036                -0.583071
2689  806.4      15.9964                -0.583601
2705  811.2      16.0804                -0.58353
2721  816        16.1663                -0.582917
2737  820.8      16.2407                -0.582861
2753  825.6      16.32                -0.582709
2769  830.4      16.405                -0.582012
2785  835.2      16.49353                 -0.580998
2801  840        16.5848                -0.581252
2817  844.8      16.6635                -0.580393
2833  849.6      16.74152                 -0.580269
2849  854.4      16.8275                -0.580889
2865  859.2      16.9125                -0.578994
2881  864        17.0017                -0.579711
2897  868.8      17.0807                -0.578805
2913  873.6      17.15822                 -0.578732
2929  878.4      17.23871                 -0.578719
2945  883.2      17.326                -0.579348
2961  888        17.41116                 -0.579857
2977  892.8      17.4926                -0.579598
2993  897.6      17.5752                -0.579772
3009  902.4      17.6586                -0.57943
3025  907.2      17.7468                -0.579273
3041  912        17.8306                -0.578821
3057  916.8      17.9087                -0.579552
3073  921.6      17.9938                -0.578609
3089  926.4      18.06893                 -0.578054
3105  931.2      18.1615                -0.577292
3121  936        18.2484                -0.577654
3137  940.8      18.32154                 -0.577747
3153  945.6      18.4121                -0.579511
3169  950.4      18.4953                -0.578079
3185  955.2      18.58111                 -0.577615
3201  960        18.657                -0.578009
3217  964.8      18.7354                -0.57781
3233  969.6      18.8217                -0.578284
3249  974.4      18.907                   -0.579008
3265  979.2      18.9977                -0.579106
3281  984        19.0728                -0.57908
3297  988.8      19.1522                -0.580117
3313  993.6      19.2415                -0.580824
3329  998.4      19.3278                -0.579423
3345  1003.2     19.4142                -0.579542
3361  1008       19.4871                -0.57979
3377  1012.8     19.5712                -0.579192
3393  1017.6     19.6525                -0.579135
3409  1022.4     19.74025                 -0.578133
3425  1027.2     19.83248                 -0.578474
3441  1032       19.9109                -0.577639
3457  1036.8     19.9888                -0.577398
3473  1041.6     20.0724                -0.576769
3489  1046.4     20.1604                -0.575896
3505  1051.2     20.2408                -0.575835
3521  1056       20.3209                -0.575875
3537  1060.8     20.4063                -0.575915
3553  1065.6     20.4821                -0.575448
3569  1070.4     20.5743                -0.574804
3585  1075.2     20.6566                -0.575753
3601  1080       20.73419                 -0.575812
3617  1084.8     20.8241                -0.576441
3633  1089.6     20.9084                -0.577119
3649  1094.4     20.9945                -0.574605
3665  1099.2     21.0765                -0.57706
3681  1104       21.1497                -0.575508
3697  1108.8     21.23506                 -0.574109
3713  1113.6     21.3202                -0.574857
3729  1118.4     21.4106                -0.57386
3745  1123.2     21.4906                -0.574671
3761  1128       21.56853                 -0.57448
3777  1132.8     21.6558                -0.574447
3793  1137.6     21.7414                -0.575051
3809  1142.4     21.8297                -0.574548
3825  1147.2     21.9045                -0.574591
3841  1152       21.9845                -0.575817
3857  1156.8     22.0664                -0.574483
3873  1161.6     22.1536                -0.576361
3889  1166.4     22.2442                -0.57599
3905  1171.2     22.3186                -0.575717
3921  1176       22.3998                -0.575764
3937  1180.8     22.4847                -0.576753
3953  1185.6     22.5726                -0.575373
3969  1190.4     22.6554                -0.576661
3985  1195.2     22.7345                -0.577021
4001  1200       22.8172                -0.575458
4017  1204.8     22.894                -0.575984
4033  1209.6     22.9862                -0.574753
4049  1214.4     23.0759                -0.5755
4065  1219.2     23.1537                -0.574777
4081  1224       23.2374                -0.574179
4097  1228.8     23.3165                -0.5744
4113  1233.6     23.4057                -0.57299
4129  1238.4     23.49                -0.573155
4145  1243.2     23.5637                -0.572515
4161  1248       23.652                -0.573184
4177  1252.8     23.7306                -0.574137
4193  1257.6     23.8226                -0.575441
4209  1262.4     23.9                -0.576561
4225  1267.2     23.9758                -0.577188
4241  1272       24.069                -0.57759
4257  1276.8     24.1556                -0.578281
4273  1281.6     24.2445                -0.578669
4289  1286.4     24.3178                -0.579112
4305  1291.2     24.3954                -0.579326
4321  1296       24.4776                -0.580429
4337  1300.8     24.566                -0.58085
4353  1305.6     24.659                -0.581172
4369  1310.4     24.7377                -0.582297
4385  1315.2     24.81517                 -0.583516
4401  1320       24.8988                -0.585171
4417  1324.8     24.9836                -0.58551
4433  1329.6     25.0751                -0.585648
4449  1334.4     25.1519                -0.586573
4465  1339.2     25.2298                -0.588065
4481  1344       25.3087                -0.588649
4497  1348.8     25.39776                 -0.588935
4513  1353.6     25.484                -0.588927
4529  1358.4     25.5653                -0.588709
4545  1363.2     25.6455                -0.589149
4561  1368       25.7299                -0.589096
4577  1372.8     25.8167                -0.586691
4593  1377.6     25.8992                  -0.58558
4609  1382.4     25.9765                -0.584555
4625  1387.2     26.0598                -0.583914
4641  1392       26.1406                -0.582823
4657  1396.8     26.236                -0.58287
4673  1401.6     26.3192                -0.581691
4689  1406.4     26.3943                -0.581216
4705  1411.2     26.4813                -0.580519
4721  1416       26.5638                -0.579192
4737  1420.8     26.6513                -0.579433
4753  1425.6     26.7281                -0.577265
4769  1430.4     26.8041                -0.576822
4785  1435.2     26.8936                -0.576949
4801  1440       26.978                -0.578218
4817  1444.8     27.0678                -0.57811
4833  1449.6     27.1433                -0.578688
4849  1454.4     27.2215                -0.577808
4865  1459.2     27.3118                -0.578129
4881  1464       27.4                -0.578046
4897  1468.8     27.4873                -0.577437
4913  1473.6     27.5633                -0.577902
4929  1478.4     27.6412                -0.578221
4945  1483.2     27.72122                 -0.57722
4961  1488       27.8085                -0.576416
4977  1492.8     27.9047                -0.577384
4993  1497.6     27.9822                -0.577157
5009  1502.4     28.0578                -0.577983
5025  1507.2     28.1444                -0.577951
5041  1512       28.2288                -0.578853
5057  1516.8     28.3127                -0.577393
5073  1521.6     28.3912                -0.578277
5089  1526.4     28.4745                -0.578392
5105  1531.2     28.5539                -0.578058
5121  1536       28.6431                -0.57769
5137  1540.8     28.7279                -0.578185
5153  1545.6     28.8073                -0.579495
5169  1550.4     28.8926                -0.579343
5185  1555.2     28.972                -0.579012
5201  1560       29.0637                -0.578138
5217  1564.8     29.1438                -0.578352
5233  1569.6     29.2199                -0.576954
5249  1574.4     29.3074                -0.578061
5265  1579.2     29.3845                -0.576932
5281  1584       29.4774                -0.577
5297  1588.8     29.5633                -0.576578
5313  1593.6     29.6379                -0.575925
5329  1598.4     29.7265                -0.576971
5345  1603.2     29.809                -0.576706
5361  1608       29.8959                -0.575269
5377  1612.8     29.9748                -0.574176
5393  1617.6     30.0536                -0.574315
5409  1622.4     30.137                -0.574552
5425  1627.2     30.2216                -0.574071
5441  1632       30.3135                -0.573194
5457  1636.8     30.3876                -0.57318
5473  1641.6     30.4659                -0.576796
5489  1646.4     30.5556                -0.574467
5505  1651.2     30.6426                -0.576175
5521  1656       30.7326                -0.576071
5537  1660.8     30.8053                -0.575256
5553  1665.6     30.885                -0.574239
5569  1670.4     30.966                -0.573264
5585  1675.2     31.0533                -0.572772
5601  1680       31.1463                -0.57363
5617  1684.8     31.2231                -0.575063
5633  1689.6     31.3038                -0.574497
5649  1694.4     31.3861                -0.575102
5665  1699.2     31.4739                -0.575068
5681  1704       31.5591                -0.575431
5697  1708.8     31.63916                 -0.574563
5713  1713.6     31.719                -0.57472
5729  1718.4     31.7973                -0.577215
5745  1723.2     31.8869                -0.577534
5761  1728       31.972                -0.577278
5777  1732.8     32.0489                -0.576793
5793  1737.6     32.1372                -0.57746
5809  1742.4     32.2186                -0.578016
5825  1747.2     32.3076                -0.577645
5841  1752       32.3849                -0.578521
5857  1756.8     32.4612                -0.579135
5873  1761.6     32.5494                -0.57805
5889  1766.4     32.63168                 -0.576903
5905  1771.2     32.7235                -0.577437
5921  1776       32.8036                -0.577916
5937  1780.8     32.87843                 -0.578105
5953  1785.6     32.9677                -0.576766
5969  1790.4     33.0531                -0.576791
5985  1795.2     33.1432                -0.575028
6001  1800       33.2151                -0.57539
6017  1804.8     33.2923                -0.574547
6033  1809.6     33.3783                -0.57496
6049  1814.4     33.4681                -0.574481
6065  1819.2     33.5559                -0.575692
6081  1824       33.62893                 -0.575646
6097  1828.8     33.7102                -0.576843
6113  1833.6     33.8017                -0.577719
6129  1838.4     33.88422                 -0.578025
6145  1843.2     33.9761                -0.577083
6161  1848       34.0498                -0.577938
6177  1852.8     34.12831                 -0.574493
6193  1857.6     34.2088                -0.575117
6209  1862.4     34.2961                -0.575073
6225  1867.2     34.39                -0.575697
6241  1872       34.4685                -0.574805
6257  1876.8     34.5468                  -0.575774
6273  1881.6     34.6294                -0.575066
6289  1886.4     34.7131                -0.574479
6305  1891.2     34.8034                -0.574429
6321  1896       34.8798                -0.575208
6337  1900.8     34.9643                -0.574633
6353  1905.6     35.0404                -0.575274
6369  1910.4     35.1301                -0.574953
6385  1915.2     35.21559                 -0.575036
6401  1920       35.29161                 -0.576022
6417  1924.8     35.3817                -0.572273
6433  1929.6     35.46272                 -0.568382
6449  1934.4     35.5522                -0.527217
6465  1939.2     35.6273                -0.50408
6481  1944       35.70351                 -0.49672
6497  1948.8     35.7937                -0.495174
6513  1953.6     35.8744                -0.497106
6529  1958.4     35.9675                -0.501124
6545  1963.2     36.047                -0.50607
6561  1968       36.1221                -0.511186
6577  1972.8     36.212                -0.512482
6593  1977.6     36.2985                -0.515224
6609  1982.4     36.3853                -0.51933
6625  1987.2     36.46056                 -0.521925
6641  1992       36.5375                -0.525615
6657  1996.8     36.62133                 -0.527831
6673  2001.6     36.7095                -0.529801
6689  2006.4     36.7993                -0.533145
6705  2011.2     36.8727                -0.535862
6721  2016       36.9539                -0.537137
6737  2020.8     37.042                -0.536508
6753  2025.6     37.1279                -0.539914
6769  2030.4     37.219                -0.540618
6785  2035.2     37.2947                -0.541562
6801  2040       37.3716                -0.54415
6817  2044.8     37.4523                -0.543701
6833  2049.6     37.5385                -0.543957
6849  2054.4     37.632                -0.547235
6865  2059.2     37.7113                -0.54746
6881  2064       37.7903                -0.548124
6897  2068.8     37.873                -0.548256
6913  2073.6     37.9577                -0.549582
6929  2078.4     38.0441                -0.530942
6945  2083.2     38.123                -0.526266
6961  2088       38.2069                -0.526274
6977  2092.8     38.2836                -0.530703
6993  2097.6     38.3735                -0.533151
7009  2102.4     38.4571                -0.539285
7025  2107.2     38.5351                -0.543706
7041  2112       38.6226                -0.547256
7057  2116.8     38.7078                -0.548618
7073  2121.6     38.7939                -0.552152
7089  2126.4     38.8697                -0.552876
7105  2131.2     38.9455                -0.555701
7121  2136       39.0368                -0.555528
7137  2140.8     39.11852                 -0.557165
7153  2145.6     39.2104                -0.556191
7169  2150.4     39.2914                -0.558476
7185  2155.2     39.3668                -0.559409
7201  2160       39.4537                -0.56062
7217  2164.8     39.5389                -0.560035
7233  2169.6     39.6269                -0.560255
7249  2174.4     39.7013                -0.561978
7265  2179.2     39.7786                -0.56246
7281  2184       39.8649                -0.563662
7297  2188.8     39.9531                -0.564043
7313  2193.6     40.0443                -0.566925
7329  2198.4     40.1157                -0.566316
7345  2203.2     40.1957                -0.567775
7361  2208       40.2855                -0.569502
7377  2212.8     40.3708                -0.570722
7393  2217.6     40.46125                 -0.569433
7409  2222.4     40.5365                -0.571584
7425  2227.2     40.6137                -0.572842
7441  2232       40.696                -0.573823
7457  2236.8     40.7828                -0.572759
7473  2241.6     40.87609                 -0.572569
7489  2246.4     40.9533                -0.572078
7505  2251.2     41.0321                -0.574462
7521  2256       41.1163                -0.578228
7537  2260.8     41.2043                -0.575293
7553  2265.6     41.2852                -0.575593
7569  2270.4     41.3639                -0.575669
7585  2275.2     41.4469                  -0.578202
7601  2280       41.5267                -0.577907
7617  2284.8     41.61651                 -0.577565
7633  2289.6     41.7009                -0.5796
7649  2294.4     41.7791                -0.579654
7665  2299.2     41.8642                -0.579864
7681  2304       41.9474                -0.57894
7697  2308.8     42.0378                -0.578755
7713  2313.6     42.1163                -0.578366
7729  2318.4     42.1912                -0.578881
7745  2323.2     42.2792                -0.579956
7761  2328       42.3603                -0.577148
7777  2332.8     42.4522                  -0.577997
7793  2337.6     42.5354                -0.576002
7809  2342.4     42.6073                -0.5777
7825  2347.2     42.6993                -0.577931
7841  2352       42.7838                -0.577981
7857  2356.8     42.8683                -0.576027
7873  2361.6     42.9486                -0.578096
7889  2366.4     43.0246                -0.576883
7905  2371.2     43.1088                -0.578844
7921  2376       43.1956                -0.57846
7937  2380.8     43.28573                 -0.577582
7953  2385.6     43.3589                -0.578105
7969  2390.4     43.4382                -0.578684
7985  2395.2     43.5306                -0.578495
8001  2400       43.6165                -0.578666
8017  2404.8     43.70248                 -0.577757
8033  2409.6     43.7764                -0.580173
8049  2414.4     43.8564                -0.57978
8065  2419.2     43.9377                -0.576873
8081  2424       44.0259                -0.577225
8097  2428.8     44.1213                -0.577722
8113  2433.6     44.1974                -0.57916
8129  2438.4     44.2748                -0.578864
8145  2443.2     44.3595                -0.581248
8161  2448       44.4454                -0.581977
8177  2452.8     44.5303                -0.580983
8193  2457.6     44.6058                -0.581949
8209  2462.4     44.6868                -0.57928
8225  2467.2     44.7708                -0.581212
8241  2472       44.8613                -0.5819
8257  2476.8     44.9433                -0.582056
8273  2481.6     45.0225                -0.583394
8289  2486.4     45.1057                -0.583188
8305  2491.2     45.1898                -0.58295
8321  2496       45.28                -0.584932
8337  2500.8     45.3564                -0.583908
8353  2505.6     45.4356                -0.584051
8369  2510.4     45.5231                -0.583186
8385  2515.2     45.6008                -0.581068
8401  2520       45.6938                -0.582417
8417  2524.8     45.7776                -0.581589
8433  2529.6     45.85284                 -0.581923
8449  2534.4     45.9418                -0.582355
8465  2539.2     46.0242                -0.580742
8481  2544       46.1122                -0.580641
8497  2548.8     46.1882                -0.58027
8513  2553.6     46.2639                -0.58102
8529  2558.4     46.3528                -0.580797
8545  2563.2     46.4374                -0.579744
8561  2568       46.52795                 -0.58055
8577  2572.8     46.6036                -0.581867
8593  2577.6     46.679                -0.583105
8609  2582.4     46.7724                -0.582553
8625  2587.2     46.8583                -0.583647
8641  2592       46.948                -0.582767
8657  2596.8     47.0208                -0.581548
8673  2601.6     47.0979                -0.581472
8689  2606.4     47.1823                -0.581416
8705  2611.2     47.2717                -0.580107
8721  2616       47.3626                -0.579266
8737  2620.8     47.4382                -0.581857
8753  2625.6     47.5167                -0.581246
8769  2630.4     47.6033                -0.580993
8785  2635.2     47.6884                -0.582248
8801  2640       47.77807                 -0.580177
8817  2644.8     47.8526                -0.581227
8833  2649.6     47.9329                -0.583639
8849  2654.4     48.0125                -0.58152
8865  2659.2     48.0995                -0.581123
8881  2664       48.1885                -0.580349
8897  2668.8     48.267                -0.581529
8913  2673.6     48.3481                -0.58333
8929  2678.4     48.4345                -0.582814
8945  2683.2     48.5213                -0.582323
8961  2688       48.6003                -0.581352
8977  2692.8     48.6797                -0.580083
8993  2697.6     48.765                -0.581767
9009  2702.4     48.8458                -0.578472
9025  2707.2     48.9352                -0.578948
9041  2712       49.0227                -0.578458
9057  2716.8     49.0984                -0.579244
9073  2721.6     49.1822                -0.580305
9089  2726.4     49.2645                -0.577368
9105  2731.2     49.3539                -0.57701
9121  2736       49.43703                 -0.578079
9137  2740.8     49.5096                -0.57815
9153  2745.6     49.5973                -0.578492
9169  2750.4     49.6771                -0.578388
9185  2755.2     49.7688                -0.578123
9201  2760       49.8483                -0.580201
9217  2764.8     49.9229                -0.57842
9233  2769.6     50.017                -0.579112
9249  2774.4     50.1011                -0.57891
9265  2779.2     50.1878                -0.581202
9281  2784       50.264                -0.579882
9297  2788.8     50.3392                -0.578339
9313  2793.6     50.4263                -0.578099
9329  2798.4     50.5118                -0.579692
9345  2803.2     50.6036                -0.580457
9361  2808       50.67952                 -0.579578
9377  2812.8     50.7586                -0.580856
9393  2817.6     50.8464                -0.580243
9409  2822.4     50.9322                -0.58077
9425  2827.2     51.0203                -0.580921
9441  2832       51.0916                -0.581205
9457  2836.8     51.17173                 -0.580783
9473  2841.6     51.2586                -0.580356
9489  2846.4     51.3453                -0.581415
9505  2851.2     51.435                -0.582939
9521  2856       51.5062                -0.584242
9537  2860.8     51.5878                -0.583303
9553  2865.6     51.6757                -0.583836
9569  2870.4     51.7641                -0.583856
9585  2875.2     51.8482                -0.583496
9601  2880       51.9196                -0.58322
9617  2884.8     52.0033                -0.582566
9633  2889.6     52.0879                -0.582032
9649  2894.4     52.1786                -0.580244
9665  2899.2     52.2665                -0.580212
9681  2904       52.3442                -0.580875
9697  2908.8     52.4197                -0.582207
9713  2913.6     52.5047                -0.582324
9729  2918.4     52.5955                -0.579253
9745  2923.2     52.6781                -0.580252
9761  2928       52.7543                -0.581548
9777  2932.8     52.8385                -0.580571
9793  2937.6     52.917                -0.579861
9809  2942.4     53.0088                -0.580572
9825  2947.2     53.0928                -0.581194
9841  2952       53.1686                -0.582223
9857  2956.8     53.2575                -0.583474
9873  2961.6     53.341                -0.582195
9889  2966.4     53.4289                -0.584949
9905  2971.2     53.5109                -0.58345
9921  2976       53.5844                -0.583684
9937  2980.8     53.6711                -0.582324
9953  2985.6     53.7507                -0.581444
9969  2990.4     53.8436                -0.583084
9985  2995.2     53.9269                -0.583628
10001 3000       54.0001                -0.581551
10017 3004.8     54.0905                -0.583849
10033 3009.6     54.1756                -0.583554
10049 3014.4     54.2623                -0.581839
10065 3019.2     54.33576                 -0.582486
10081 3024       54.4114                -0.584492
10097 3028.8     54.4994                -0.582114
10113 3033.6     54.5881                -0.584885
10129 3038.4     54.6783                -0.585767
10145 3043.2     54.7494                -0.58326
10161 3048       54.8274                -0.585668
10177 3052.8     54.9212                -0.586282
10193 3057.6     55.008                -0.585503
10209 3062.4     55.0926                -0.585186
10225 3067.2     55.1612                -0.586251
10241 3072       55.24384                 -0.584528
10257 3076.8     55.33288                 -0.583642
10273 3081.6     55.4209                -0.582527
10289 3086.4     55.5103                -0.581522
10305 3091.2     55.5856                -0.583366
10321 3096       55.6631                -0.582098
10337 3100.8     55.7515                -0.582824
10353 3105.6     55.8362                -0.582342
10369 3110.4     55.9274                -0.581217
10385 3115.2     56.0016                -0.581146
10401 3120       56.0799                -0.582743
10417 3124.8     56.1613                  -0.581407
10433 3129.6     56.25                -0.581833
10449 3134.4     56.337                -0.58184
10465 3139.2     56.4155                -0.58045
10481 3144       56.49659                 -0.582241
10497 3148.8     56.58058                 -0.582444
10513 3153.6     56.67043                 -0.581835
10529 3158.4     56.7536                -0.580309
10545 3163.2     56.8314                -0.581161
10561 3168       56.9138                -0.580411
10577 3172.8     56.9924                -0.580945
10593 3177.6     57.08183                 -0.57972
10609 3182.4     57.1718                -0.578339
10625 3187.2     57.2477                -0.57825
10641 3192       57.3347                -0.579759
10657 3196.8     57.412                -0.580723
10673 3201.6     57.501                -0.580357
10689 3206.4     57.5832                -0.580141
10705 3211.2     57.6593                -0.579251
10721 3216       57.7451                -0.57987
10737 3220.8     57.8239                -0.581963
10753 3225.6     57.9171                -0.583361
10769 3230.4     57.9964                -0.580567
10785 3235.2     58.0697                -0.58359
10801 3240       58.1651                -0.584502
10817 3244.8     58.2503                -0.58597
10833 3249.6     58.3354                -0.583853
10849 3254.4     58.4086                -0.582801
10865 3259.2     58.4843                -0.582476
10881 3264       58.5753                -0.583044
10897 3268.8     58.66127                 -0.585011
10913 3273.6     58.7542                -0.581609
10929 3278.4     58.8277                -0.581549
10945 3283.2     58.9035                -0.581135
10961 3288       58.9935                -0.582606
10977 3292.8     59.0818                -0.579228
10993 3297.6     59.1691                -0.577811
11009 3302.4     59.2376                -0.579736
11025 3307.2     59.3184                -0.581955
11041 3312       59.4051                -0.579535
11057 3316.8     59.4951                -0.580251
11073 3321.6     59.5843                -0.58216
11089 3326.4     59.65448                 -0.578131
11105 3331.2     59.7317                -0.580735
11121 3336       59.8256                -0.581821
11137 3340.8     59.9119                -0.580999
11153 3345.6     60.0019                -0.580442
11169 3350.4     60.0741                -0.579056
11185 3355.2     60.1523                -0.582037
11201 3360       60.2355                -0.581806
11217 3364.8     60.3245                -0.579876
11233 3369.6     60.41728                 -0.578648
11249 3374.4     60.4924                -0.581994
11265 3379.2     60.568                -0.580511
11281 3384       60.6549                -0.579934
11297 3388.8     60.7445                -0.579811
11313 3393.6     60.8296                -0.578355
11329 3398.4     60.9057                -0.579155
11345 3403.2     60.9843                -0.580666
11361 3408       61.0672                -0.58014
11377 3412.8     61.1588                -0.580597
11393 3417.6     61.2407                -0.579043
11409 3422.4     61.3188                -0.580097
11425 3427.2     61.4016                -0.579031
11441 3432       61.48354                 -0.579402
11457 3436.8     61.5752                -0.579662
11473 3441.6     61.6571                -0.579326
11489 3446.4     61.7325                -0.579152
11505 3451.2     61.81667                 -0.577145
11521 3456       61.8979                -0.578558
11537 3460.8     61.9909                -0.57836
11553 3465.6     62.0764                -0.576871
11569 3470.4     62.1497                -0.578797
11585 3475.2     62.2367                -0.577895
11601 3480       62.3183                -0.575325
11617 3484.8     62.4063                -0.573414
11633 3489.6     62.4907                -0.57617
11649 3494.4     62.5622                -0.576817
11665 3499.2     62.6518                -0.574237
11681 3504       62.7295                -0.574957
11697 3508.8     62.8228                -0.577579
11713 3513.6     62.9004                -0.576946
11729 3518.4     62.9766                -0.576632
11745 3523.2     63.07053                 -0.579044
11761 3528       63.1538                -0.577683
11777 3532.8     63.2416                -0.577294
11793 3537.6     63.3166                -0.576565
11809 3542.4     63.3922                -0.577562
11825 3547.2     63.4791                -0.577795
11841 3552       63.5666                -0.578616
11857 3556.8     63.66064                 -0.577403
11873 3561.6     63.7365                -0.576385
11889 3566.4     63.8092                -0.578577
11905 3571.2     63.8971                -0.57955
11921 3576       63.9846                -0.578508
11937 3580.8     64.074                -0.576652
11953 3585.6     64.1458                -0.580218
11969 3590.4     64.2238                -0.579345
11985 3595.2     64.311                -0.581268
12001 3600       64.3977                -0.580443
12017 3604.8     64.486                -0.580381
12033 3609.6     64.5593                -0.582426
12049 3614.4     64.6419                -0.581159
12065 3619.2     64.7307                -0.581286
12081 3624       64.8149                -0.582349
12097 3628.8     64.90152                 -0.582634
12113 3633.6     64.9738                -0.582016
12129 3638.4     65.0578                -0.582146
12145 3643.2     65.142                -0.580475
12161 3648       65.2305                -0.578094
12177 3652.8     65.3202                -0.582455
12193 3657.6     65.3982                -0.580459
12209 3662.4     65.4733                -0.578948
12225 3667.2     65.56041                 -0.580439
12241 3672       65.6485                -0.578257
12257 3676.8     65.7301                -0.581051
12273 3681.6     65.8086                -0.580979
12289 3686.4     65.8907                -0.579776
12305 3691.2     65.97204                 -0.580412
12321 3696       66.0614                -0.57989
12337 3700.8     66.1462                -0.582074
12353 3705.6     66.2255                -0.582744
12369 3710.4     66.3093                -0.582739
12385 3715.2     66.3919                -0.583113
12401 3720       66.4793                -0.5813
12417 3724.8     66.565                -0.578949
12433 3729.6     66.6394                -0.578113
12449 3734.4     66.7268                -0.576883
12465 3739.2     66.8019                -0.579097
12481 3744       66.8954                -0.579569
12497 3748.8     66.9818                -0.576386
12513 3753.6     67.0552                -0.579415
12529 3758.4     67.1421                -0.578284
12545 3763.2     67.2245                -0.576307
12561 3768       67.314                -0.578129
12577 3772.8     67.3925                -0.576873
12593 3777.6     67.4653                -0.577738
12609 3782.4     67.5555                -0.579632
12625 3787.2     67.6377                -0.576067
12641 3792       67.7292                -0.578728
12657 3796.8     67.8048                -0.579217
12673 3801.6     67.8796                -0.579395
12689 3806.4     67.97474                 -0.580654
12705 3811.2     68.062                -0.578152
12721 3816       68.1469                -0.580941
12737 3820.8     68.2195                -0.578603
12753 3825.6     68.2941                -0.577235
12769 3830.4     68.3848                -0.578278
12785 3835.2     68.473                -0.57956
12801 3840       68.5649                -0.577345
12817 3844.8     68.6382                -0.578675
12833 3849.6     68.7138                -0.57509
12849 3854.4     68.80446                 -0.575457
12865 3859.2     68.8924                -0.577053
12881 3864       68.9794                -0.575683
12897 3868.8     69.0507                -0.575687
12913 3873.6     69.1313                -0.57794
12929 3878.4     69.2155                -0.576923
12945 3883.2     69.3043                -0.575201
12961 3888       69.3946                -0.576707
12977 3892.8     69.4662                -0.577641
12993 3897.6     69.5449                -0.576375
13009 3902.4     69.6365                -0.579037
13025 3907.2     69.72231                 -0.576552
13041 3912       69.8119                -0.575816
13057 3916.8     69.88509                 -0.576252
13073 3921.6     69.96508                 -0.576607
13089 3926.4     70.0486                -0.575026
13105 3931.2     70.1329                -0.576021
13121 3936       70.2257                -0.576007
13137 3940.8     70.3037                -0.577084
13153 3945.6     70.3812                -0.577377
13169 3950.4     70.467                -0.577512
13185 3955.2     70.5534                -0.57553
13201 3960       70.6377                -0.576977
13217 3964.8     70.7133                -0.578818
13233 3969.6     70.7942                -0.577344
13249 3974.4     70.8792                -0.579706
13265 3979.2     70.9675                -0.579333
13281 3984       71.0504                -0.580571
13297 3988.8     71.1301                -0.581606
13313 3993.6     71.2123                -0.580879
13329 3998.4     71.2966                -0.58004
13345 4003.2     71.3845                -0.581462
13361 4008       71.4669                -0.580564
13377 4012.8     71.5442                -0.579239
13393 4017.6     71.6276                -0.580182
13409 4022.4     71.7083                -0.577396
13425 4027.2     71.801                -0.575279
13441 4032       71.8896                -0.574802
13457 4036.8     71.9622                -0.576833
13473 4041.6     72.0461                -0.574255
13489 4046.4     72.1255                -0.571965
13505 4051.2     72.2182                -0.572901
13521 4056       72.2976                -0.573061
13537 4060.8     72.3739                -0.57398
13553 4065.6     72.4589                -0.572862
13569 4070.4     72.5404                -0.57473
13585 4075.2     72.6346                -0.573984
13601 4080       72.71172                 -0.573955
13617 4084.8     72.7886                -0.57436
13633 4089.6     72.8803                -0.572899
13649 4094.4     72.9624                -0.574817
13665 4099.2     73.0518                -0.574936
13681 4104       73.1303                -0.578626
13697 4108.8     73.2043                -0.577732
13713 4113.6     73.2925                -0.574301
13729 4118.4     73.3738                -0.57593
13745 4123.2     73.4684                -0.573889
13761 4128       73.5464                -0.574039
13777 4132.8     73.6206                -0.575463
13793 4137.6     73.7108                -0.578889
13809 4142.4     73.7954                -0.574901
13825 4147.2     73.8834                -0.573402
13841 4152       73.9571                -0.576509
13857 4156.8     74.0356                -0.572822
13873 4161.6     74.1224                -0.577261
13889 4166.4     74.2091                -0.576756
13905 4171.2     74.2996                -0.578156
13921 4176       74.37143                 -0.578906
13937 4180.8     74.4503                -0.578289
13953 4185.6     74.5415                -0.578815
13969 4190.4     74.6293                -0.577448
13985 4195.2     74.7147                -0.579957
14001 4200       74.7824                -0.579296
14017 4204.8     74.8654                -0.579081
14033 4209.6     74.9538                -0.579465
14049 4214.4     75.0419                -0.577297
14065 4219.2     75.1328                -0.577365
14081 4224       75.2066                -0.576152
14097 4228.8     75.2805                -0.576747
14113 4233.6     75.3726                -0.578208
14129 4238.4     75.4584                -0.574188
14145 4243.2     75.55                -0.574794
14161 4248       75.6228                -0.574636
14177 4252.8     75.7003                -0.577608
14193 4257.6     75.7832                -0.57702
14209 4262.4     75.8705                -0.574823
14225 4267.2     75.9605                -0.577644
14241 4272       76.0355                -0.575799
14257 4276.8     76.1169                -0.57907
14273 4281.6     76.2036                -0.578737
14289 4286.4     76.2899                -0.578368
14305 4291.2     76.378                -0.577425
14321 4296       76.454                -0.577212
14337 4300.8     76.5314                -0.577743
14353 4305.6     76.6142                -0.576956
14369 4310.4     76.7041                -0.576613
14385 4315.2     76.7924                -0.574985
14401 4320       76.8706                -0.577817
14417 4324.8     76.949                -0.577118
14433 4329.6     77.0338                -0.577754
14449 4334.4     77.121                -0.577848
14465 4339.2     77.2052                -0.575209
14481 4344       77.2837                -0.577522
14497 4348.8     77.366                -0.577026
14513 4353.6     77.4439                -0.577661
14529 4358.4     77.5355                -0.57818
14545 4363.2     77.6201                -0.581304
14561 4368       77.6979                -0.578423
14577 4372.8     77.7838                -0.57982
14593 4377.6     77.8633                -0.583542
14609 4382.4     77.9543                -0.580549
14625 4387.2     78.0343                -0.578596
14641 4392       78.1085                -0.577688
14657 4396.8     78.1981                -0.579879
14673 4401.6     78.2764                -0.577397
14689 4406.4     78.3698                -0.577657
14705 4411.2     78.45416                 -0.576084
14721 4416       78.5263                -0.577845
14737 4420.8     78.616                -0.575111
14753 4425.6     78.6974                -0.579272
14769 4430.4     78.7848                -0.578367
14785 4435.2     78.8644                -0.580912
14801 4440       78.9403                -0.577404
14817 4444.8     79.0313                  -0.579749
14833 4449.6     79.1109                -0.580128
14849 4454.4     79.2007                -0.577632
14865 4459.2     79.2786                -0.579639
14881 4464       79.35435                 -0.579399
14897 4468.8     79.4494                -0.582082
14913 4473.6     79.5309                -0.580356
14929 4478.4     79.6175                -0.581573
14945 4483.2     79.69695                 -0.581498
14961 4488       79.7707                -0.582317
14977 4492.8     79.8587                -0.581274
14993 4497.6     79.9445                -0.578744
15001 4500       79.9886                -0.581803