File: rawdata/SM_LPS_in_H2O_c2.txt
SM_LPS_in_H2O
Creation Date : 12/20/2018 2:24:09 PM
User : PSCM

HeatFlow :
 Initial Mass : 497 mg
 Molar Mass : N/A

Index Time (s)   Furnace Temperature (Â°C) HeatFlow (mW)
1     0          83.576                -0.224625
16    4.5        82.9717                -0.214691
31    9          83.3371                -0.207309
46    13.5       83.9056                -0.204879
61    18         84.2807                -0.209769
76    22.5       84.4993                -0.218714
91    27         84.5023                -0.231585
106   31.5       84.4435                -0.246684
121   36         84.4576                -0.263798
136   40.5       84.4533                -0.283309
151   45         84.43                -0.302008
166   49.5       84.3901                -0.320511
181   54         84.344                -0.337298
196   58.5       84.3123                -0.353386
211   63         84.267                -0.366389
226   67.5       84.2084                -0.377263
241   72         84.146                -0.384559
256   76.5       84.0838                -0.389867
271   81         84.0275                -0.394493
286   85.5       83.9718                -0.39634
301   90         83.8978                -0.396433
316   94.5       83.8334                -0.39529
331   99         83.7645                -0.387711
346   103.5      83.6951                -0.380523
361   108        83.6318                -0.373091
376   112.5      83.56071                 -0.361307
391   117        83.4914                -0.347021
406   121.5      83.4169                -0.334021
421   126        83.34278                 -0.314959
436   130.5      83.2724                -0.300334
451   135        83.1998                -0.285436
466   139.5      83.1266                -0.266433
481   144        83.0518                -0.245789
496   148.5      82.977                -0.228112
511   153        82.9029                -0.205338
526   157.5      82.828                -0.184774
541   162        82.7525                -0.163271
556   166.5      82.6896                -0.139975
571   171        82.6826                -0.120035
586   175.5      82.6422                -0.099921
601   180        82.5642                -0.074709
616   184.5      82.4786                -0.054685
631   189        82.39455                 -0.033116
646   193.5      82.3263                -0.012564
661   198        82.26308                 0.007652
676   202.5      82.1859                0.029092
691   207        82.1065                0.050935
706   211.5      82.0258                0.070499
721   216        81.95                0.090638
736   220.5      81.8793                0.107314
751   225        81.7922                0.125652
766   229.5      81.7114                0.145588
781   234        81.6321                0.162235
796   238.5      81.5594                0.182332
811   243        81.48465                 0.196426
826   247.5      81.3952                0.208274
841   252        81.31193                 0.225726
856   256.5      81.2414                0.241111
871   261        81.1627                0.254945
886   265.5      81.083                0.270349
901   270        81.0024                0.283499
916   274.5      80.9144                0.29346
931   279        80.8342                0.306281
946   283.5      80.7562                0.319454
961   288        80.6835                0.330389
976   292.5      80.6071                0.342486
991   297        80.5147                0.351599
1006  301.5      80.4394                0.362993
1021  306        80.3568                0.372375
1036  310.5      80.2823                  0.381923
1051  315        80.2054                0.393654
1066  319.5      80.1166                0.400601
1081  324        80.0373                0.406553
1096  328.5      79.9494                0.415672
1111  333        79.8795                0.421512
1126  337.5      79.7995                0.428346
1141  342        79.7147                0.434383
1156  346.5      79.6376                0.441062
1171  351        79.5573                0.448805
1186  355.5      79.48017                 0.454864
1201  360        79.4035                0.462804
1216  364.5      79.3147                0.46438
1231  369        79.2349                0.471302
1246  373.5      79.1521                0.476678
1261  378        79.0794                0.483037
1276  382.5      79.0098                0.484116
1291  387        78.9234                0.488068
1306  391.5      78.8392                0.494598
1321  396        78.7627                0.500324
1336  400.5      78.6865                0.503844
1351  405        78.6116                0.504284
1366  409.5      78.5266                0.505569
1381  414        78.4398                0.512536
1396  418.5      78.3602                0.514276
1411  423        78.28517                 0.518512
1426  427.5      78.212                0.519966
1441  432        78.129                0.523277
1456  436.5      78.0425                0.526636
1471  441        77.9718                0.528447
1486  445.5      77.8933                0.527117
1501  450        77.8169                0.529734
1516  454.5      77.741                0.529706
1531  459        77.6515                0.532893
1546  463.5      77.5748                0.534537
1561  468        77.489                0.539677
1576  472.5      77.4202                0.541278
1591  477        77.3494                0.542057
1606  481.5      77.2624                0.542341
1621  486        77.1788                0.541422
1636  490.5      77.1003                  0.543152
1651  495        77.02595                 0.543096
1666  499.5      76.9529                0.543534
1681  504        76.8669                0.545753
1696  508.5      76.7841                  0.545508
1711  513        76.7032                0.546323
1726  517.5      76.631                0.545505
1741  522        76.5584                0.546262
1756  526.5      76.4709                0.54595
1771  531        76.3892                0.54609
1786  535.5      76.3179                0.54686
1801  540        76.2422                0.547362
1816  544.5      76.1652                  0.546443
1831  549        76.0785                0.548845
1846  553.5      75.9945                0.551208
1861  558        75.9224                0.550541
1876  562.5      75.8428                0.550911
1891  567        75.7706                0.550039
1906  571.5      75.6966                0.554254
1921  576        75.611                0.551026
1936  580.5      75.5321                0.551593
1951  585        75.4497                0.551395
1966  589.5      75.3763                0.551022
1981  594        75.3059                0.552512
1996  598.5      75.2187                0.551749
2011  603        75.136                0.552065
2026  607.5      75.0562                0.554219
2041  612        74.9838                0.55275
2056  616.5      74.9119                0.553123
2071  621        74.8251                0.554234
2086  625.5      74.7432                0.552204
2101  630        74.6717                0.555372
2116  634.5      74.5971                0.550479
2131  639        74.5202                0.550136
2146  643.5      74.4401                0.550117
2161  648        74.3533                0.550919
2176  652.5      74.2779                0.552537
2191  657        74.1968                0.554251
2206  661.5      74.1271                0.552825
2221  666        74.0553                0.554154
2236  670.5      73.9689                0.55539
2251  675        73.8899                0.553735
2266  679.5      73.8093                0.550614
2281  684        73.7343                0.552843
2296  688.5      73.6603                0.551965
2311  693        73.57529                 0.55541
2326  697.5      73.4948                0.553502
2341  702        73.4154                0.553174
2356  706.5      73.3412                0.553117
2371  711        73.2712                0.552063
2386  715.5      73.1818                0.551927
2401  720        73.10324                 0.55147
2416  724.5      73.0297                0.553253
2431  729        72.9561                0.551658
2446  733.5      72.8781                0.553087
2461  738        72.7932                0.552989
2476  742.5      72.7099                0.554854
2491  747        72.6392                0.556723
2506  751.5      72.5595                0.555418
2521  756        72.4852                0.555282
2536  760.5      72.4121                0.555239
2551  765        72.3237                0.554466
2566  769.5      72.2505                0.556986
2581  774        72.1687                0.556878
2596  778.5      72.0937                0.558619
2611  783        72.0236                0.558973
2626  787.5      71.9399                0.555505
2641  792        71.8568                0.555024
2656  796.5      71.77412                 0.557716
2671  801        71.6996                0.560816
2686  805.5      71.6309                0.558778
2701  810        71.5438                0.561334
2716  814.5      71.4627                0.559391
2731  819        71.3906                0.55815
2746  823.5      71.316                0.558748
2761  828        71.2388                0.558193
2776  832.5      71.1607                0.558952
2791  837        71.0753                0.559116
2806  841.5      70.9988                0.558244
2821  846        70.91844                 0.561172
2836  850.5      70.84604                 0.558758
2851  855        70.7724                0.56114
2866  859.5      70.6876                0.559001
2881  864        70.6124                0.557115
2896  868.5      70.5293                0.560165
2911  873        70.4562                0.556981
2926  877.5      70.3843                0.557875
2941  882        70.2983                0.555987
2956  886.5      70.2169                0.556676
2971  891        70.135                0.556536
2986  895.5      70.0612                0.555739
3001  900        69.9924                0.55538
3016  904.5      69.906                0.554707
3031  909        69.8247                0.553068
3046  913.5      69.7514                0.553416
3061  918        69.6769                0.553822
3076  922.5      69.6009                0.552575
3091  927        69.5153                0.555937
3106  931.5      69.4337                0.554805
3121  936        69.35827                 0.554324
3136  940.5      69.2808                0.553438
3151  945        69.2083                0.553499
3166  949.5      69.134                0.555338
3181  954        69.04828                 0.554447
3196  958.5      68.9736                0.555468
3211  963        68.8901                0.556048
3226  967.5      68.8167                0.554276
3241  972        68.74139                 0.555975
3256  976.5      68.6577                0.554469
3271  981        68.5781                0.554973
3286  985.5      68.4978                0.55678
3301  990        68.4229                0.55691
3316  994.5      68.3546                0.555661
3331  999        68.2665                0.556993
3346  1003.5     68.187                0.554394
3361  1008       68.1136                0.555892
3376  1012.5     68.0407                0.555692
3391  1017       67.9616                0.556591
3406  1021.5     67.8819                0.555449
3421  1026       67.79712                 0.554098
3436  1030.5     67.7221                0.554308
3451  1035       67.64325                 0.55692
3466  1039.5     67.5717                0.555601
3481  1044       67.496                0.55499
3496  1048.5     67.41052                 0.554805
3511  1053       67.3356                  0.556931
3526  1057.5     67.2528                0.552367
3541  1062       67.181                   0.553585
3556  1066.5     67.1082                0.552867
3571  1071       67.0235                0.553694
3586  1075.5     66.9408                0.55323
3601  1080       66.8596                0.555139
3616  1084.5     66.78377                 0.553441
3631  1089       66.7152                0.552164
3646  1093.5     66.63123                 0.550141
3661  1098       66.5508                0.551918
3676  1102.5     66.4751                0.55284
3691  1107       66.4012                0.549682
3706  1111.5     66.3244                0.54775
3721  1116       66.2397                0.546671
3736  1120.5     66.157                0.548449
3751  1125       66.0842                0.549391
3766  1129.5     66.00591                 0.550307
3781  1134       65.9316                0.546943
3796  1138.5     65.8587                0.547879
3811  1143       65.7706                0.548845
3826  1147.5     65.6985                0.547257
3841  1152       65.61654                 0.545067
3856  1156.5     65.5414                0.543137
3871  1161       65.4697                0.54141
3886  1165.5     65.3863                0.541076
3901  1170       65.3046                0.544021
3916  1174.5     65.2209                0.542712
3931  1179       65.1475                0.543704
3946  1183.5     65.0787                0.546062
3961  1188       64.9924                0.546362
3976  1192.5     64.9113                0.545366
3991  1197       64.8382                0.550403
4006  1201.5     64.7651                0.550203
4021  1206       64.6899                0.551647
4036  1210.5     64.6073                0.553739
4051  1215       64.5225                0.555746
4066  1219.5     64.4457                0.555152
4081  1224       64.3683                0.559297
4096  1228.5     64.29366                 0.559184
4111  1233       64.2215                0.560733
4126  1237.5     64.1347                0.561416
4141  1242       64.0637                0.560802
4156  1246.5     63.9782                0.559733
4171  1251       63.9061                0.562398
4186  1255.5     63.8317                0.562176
4201  1260       63.749                0.562645
4216  1264.5     63.6681                0.56092
4231  1269       63.5839                0.560736
4246  1273.5     63.5097                0.562151
4261  1278       63.4418                0.56358
4276  1282.5     63.3558                0.562068
4291  1287       63.2743                0.561575
4306  1291.5     63.2033                0.563049
4321  1296       63.12709                 0.562803
4336  1300.5     63.0511                0.563129
4351  1305       62.9669                0.56418
4366  1309.5     62.8839                0.564744
4381  1314       62.8071                0.565091
4396  1318.5     62.7313                0.565124
4411  1323       62.6573                  0.564434
4426  1327.5     62.5812                0.565939
4441  1332       62.4973                0.563922
4456  1336.5     62.4249                0.566557
4471  1341       62.341                0.567226
4486  1345.5     62.2688                0.567479
4501  1350       62.1904                0.568669
4516  1354.5     62.1054                0.56536
4531  1359       62.03064                 0.567667
4546  1363.5     61.9474                0.566009
4561  1368       61.8745                0.566474
4576  1372.5     61.8035                0.566753
4591  1377       61.7192                0.565984
4606  1381.5     61.6384                  0.565791
4621  1386       61.5643                0.566947
4636  1390.5     61.4882                0.565317
4651  1395       61.4153                0.567671
4666  1399.5     61.3334                0.567233
4681  1404       61.2504                0.564181
4696  1408.5     61.1702                0.565873
4711  1413       61.0961                0.565969
4726  1417.5     61.02142                 0.5677
4741  1422       60.9463                0.565835
4756  1426.5     60.8586                0.564675
4771  1431       60.7881                0.565927
4786  1435.5     60.7049                0.564917
4801  1440       60.6317                0.564038
4816  1444.5     60.5539                0.563065
4831  1449       60.47014                 0.563994
4846  1453.5     60.3941                0.563312
4861  1458       60.3088                0.563893
4876  1462.5     60.2388                0.560042
4891  1467       60.167                0.55957
4906  1471.5     60.0813                0.559943
4921  1476       60.00166                 0.558472
4936  1480.5     59.9286                0.559848
4951  1485       59.85259                 0.558112
4966  1489.5     59.7792                0.557624
4981  1494       59.6914                0.558584
4996  1498.5     59.60847                 0.556309
5011  1503       59.5313                  0.555968
5026  1507.5     59.4601                0.556368
5041  1512       59.3868                0.557124
5056  1516.5     59.30581                 0.557088
5071  1521       59.2217                0.558134
5086  1525.5     59.1534                0.555969
5101  1530       59.0692                0.554286
5116  1534.5     58.9949                0.556885
5131  1539       58.9218                0.557298
5146  1543.5     58.836                0.556319
5161  1548       58.7597                0.554892
5176  1552.5     58.6742                0.556526
5191  1557       58.6029                0.555423
5206  1561.5     58.5269                0.552657
5221  1566       58.4454                0.554705
5236  1570.5     58.365                0.554867
5251  1575       58.2903                0.55425
5266  1579.5     58.2148                0.553878
5281  1584       58.1448                0.554504
5296  1588.5     58.0598                0.551847
5311  1593       57.9763                0.553622
5326  1597.5     57.8955                0.556804
5341  1602       57.8223                0.555218
5356  1606.5     57.749                0.554694
5371  1611       57.6705                0.557253
5386  1615.5     57.5866                0.556675
5401  1620       57.5174                0.554697
5416  1624.5     57.4331                0.552062
5431  1629       57.3592                0.554507
5446  1633.5     57.2801                0.556205
5461  1638       57.1941                0.555144
5476  1642.5     57.1195                0.553505
5491  1647       57.0365                0.554188
5506  1651.5     56.9672                0.555254
5521  1656       56.8923                0.552953
5536  1660.5     56.807                0.551925
5551  1665       56.729                0.553027
5566  1669.5     56.65274                 0.550983
5581  1674       56.5781                0.550028
5596  1678.5     56.5044                0.552893
5611  1683       56.4175                0.551992
5626  1687.5     56.3365                0.552152
5641  1692       56.2591                0.550891
5656  1696.5     56.1869                0.552489
5671  1701       56.113                0.551029
5686  1705.5     56.0356                0.550666
5701  1710       55.9507                0.553577
5716  1714.5     55.878                0.551998
5731  1719       55.798                0.553013
5746  1723.5     55.7249                0.554129
5761  1728       55.6408                0.554999
5776  1732.5     55.5552                0.554211
5791  1737       55.4841                0.555801
5806  1741.5     55.4                0.556334
5821  1746       55.3299                0.555206
5836  1750.5     55.2544                0.557636
5851  1755       55.1697                0.555808
5866  1759.5     55.09186                 0.554573
5881  1764       55.016                0.553679
5896  1768.5     54.943                0.553988
5911  1773       54.8726                0.55404
5926  1777.5     54.7864                0.553027
5941  1782       54.7045                0.556864
5956  1786.5     54.6238                0.555346
5971  1791       54.5469                0.557124
5986  1795.5     54.479                0.558824
6001  1800       54.3962                0.55836
6016  1804.5     54.314                0.556438
6031  1809       54.2424                0.557508
6046  1813.5     54.165                0.556975
6061  1818       54.0883                0.556747
6076  1822.5     54.0096                0.556861
6091  1827       53.9228                0.556455
6106  1831.5     53.8497                0.556365
6121  1836       53.7663                0.556063
6136  1840.5     53.69449                 0.556211
6151  1845       53.6157                0.557445
6166  1849.5     53.5327                0.557429
6181  1854       53.4597                0.55631
6196  1858.5     53.3824                0.557483
6211  1863       53.30746                 0.556409
6226  1867.5     53.2316                0.558034
6241  1872       53.1472                0.556009
6256  1876.5     53.0645                0.557699
6271  1881       52.9843                0.557633
6286  1885.5     52.9106                0.558473
6301  1890       52.8433                0.558331
6316  1894.5     52.759                0.559298
6331  1899       52.6784                0.559892
6346  1903.5     52.6044                0.55962
6361  1908       52.5277                  0.559203
6376  1912.5     52.4513                0.560229
6391  1917       52.3739                0.560185
6406  1921.5     52.2878                0.558713
6421  1926       52.2128                0.557708
6436  1930.5     52.1321                0.559889
6451  1935       52.05974                 0.55941
6466  1939.5     51.9783                0.559034
6481  1944       51.8953                0.558631
6496  1948.5     51.8239                0.560733
6511  1953       51.7427                0.560546
6526  1957.5     51.6706                0.560511
6541  1962       51.6003                0.560439
6556  1966.5     51.51394                 0.558497
6571  1971       51.4329                0.560254
6586  1975.5     51.35087                 0.560274
6601  1980       51.2769                0.560357
6616  1984.5     51.20948                 0.560751
6631  1989       51.1258                0.560359
6646  1993.5     51.0424                0.561026
6661  1998       50.9694                0.561062
6676  2002.5     50.89433                 0.558684
6691  2007       50.8172                0.558691
6706  2011.5     50.73646                 0.561642
6721  2016       50.651                0.557278
6736  2020.5     50.577                0.55715
6751  2025       50.5                0.556305
6766  2029.5     50.4243                0.557688
6781  2034       50.3442                0.556834
6796  2038.5     50.25846                 0.5538
6811  2043       50.1914                0.554917
6826  2047.5     50.1085                0.5544
6841  2052       50.0368                0.553503
6856  2056.5     49.958                0.553975
6871  2061       49.8743                0.552662
6886  2065.5     49.7972                0.551294
6901  2070       49.7122                0.552176
6916  2074.5     49.6417                0.553013
6931  2079       49.5742                0.553966
6946  2083.5     49.49092                 0.55325
6961  2088       49.4073                0.552064
6976  2092.5     49.3332                0.552749
6991  2097       49.2568                0.552996
7006  2101.5     49.1846                  0.55294
7021  2106       49.09533                 0.552815
7036  2110.5     49.0162                0.552039
7051  2115       48.9392                0.551781
7066  2119.5     48.8649                0.55097
7081  2124       48.7887                0.551697
7096  2128.5     48.7084                0.551443
7111  2133       48.6246                0.552692
7126  2137.5     48.5568                0.550366
7141  2142       48.4748                0.547719
7156  2146.5     48.4003                0.549343
7171  2151       48.3263                0.546046
7186  2155.5     48.2432                0.548732
7201  2160       48.1669                0.547538
7216  2164.5     48.0792                0.548523
7231  2169       48.00904                 0.5483
7246  2173.5     47.9396                0.549159
7261  2178       47.8574                0.550445
7276  2182.5     47.773                0.548811
7291  2187       47.6972                0.54874
7306  2191.5     47.6222                0.54851
7321  2196       47.5514                0.547459
7336  2200.5     47.4631                0.54788
7351  2205       47.3827                0.546988
7366  2209.5     47.3024                0.54377
7381  2214       47.2308                0.545604
7396  2218.5     47.1563                0.546891
7411  2223       47.0725                0.548096
7426  2227.5     46.9909                0.545109
7441  2232       46.9221                0.545667
7456  2236.5     46.8431                0.546683
7471  2241       46.76751                 0.54518
7486  2245.5     46.6841                0.547453
7501  2250       46.6004                0.545531
7516  2254.5     46.5291                0.548021
7531  2259       46.444                0.54811
7546  2263.5     46.3714                0.547609
7561  2268       46.3                0.54713
7576  2272.5     46.2193                0.547349
7591  2277       46.1388                0.545944
7606  2281.5     46.0626                0.547202
7621  2286       45.9849                0.547716
7636  2290.5     45.9145                0.548989
7651  2295       45.8312                0.547869
7666  2299.5     45.7477                0.550384
7681  2304       45.66642                 0.550141
7696  2308.5     45.5945                0.549209
7711  2313       45.522                0.550365
7726  2317.5     45.43497                 0.547977
7741  2322       45.3557                0.548188
7756  2326.5     45.2829                0.548491
7771  2331       45.2071                0.548291
7786  2335.5     45.1314                0.550047
7801  2340       45.0513                0.549207
7816  2344.5     44.96818                 0.550162
7831  2349       44.8934                0.548694
7846  2353.5     44.81227                 0.551522
7861  2358       44.7382                0.550272
7876  2362.5     44.6661                  0.551132
7891  2367       44.5825                0.552597
7906  2371.5     44.5059                0.54927
7921  2376       44.4242                0.549875
7936  2380.5     44.3514                0.54833
7951  2385       44.2788                0.547644
7966  2389.5     44.1944                0.549422
7981  2394       44.1127                0.546865
7996  2398.5     44.02968                 0.546634
8011  2403       43.9553                0.547334
8026  2407.5     43.8852                0.547853
8041  2412       43.7998                0.548717
8056  2416.5     43.721                0.548688
8071  2421       43.6478                0.549182
8086  2425.5     43.5736                0.547398
8101  2430       43.497                0.547664
8116  2434.5     43.4124                0.548047
8131  2439       43.3286                0.54548
8146  2443.5     43.2523                0.545195
8161  2448       43.1778                0.545809
8176  2452.5     43.1016                0.548026
8191  2457       43.02868                 0.546644
8206  2461.5     42.9407                0.547418
8221  2466       42.8696                0.548675
8236  2470.5     42.7874                0.546169
8251  2475       42.715                0.548017
8266  2479.5     42.6359                0.547678
8281  2484       42.55444                 0.548082
8296  2488.5     42.4772                0.548462
8311  2493       42.3934                0.547045
8326  2497.5     42.3191                  0.547857
8341  2502       42.24738                 0.54938
8356  2506.5     42.1631                0.548625
8371  2511       42.0838                0.548297
8386  2515.5     42.01                0.547677
8401  2520       41.9354                0.546012
8416  2524.5     41.862                0.547431
8431  2529       41.779                0.548236
8446  2533.5     41.6974                0.547378
8461  2538       41.6177                0.547657
8476  2542.5     41.543                0.547979
8491  2547       41.4673                0.549827
8506  2551.5     41.391                0.546855
8521  2556       41.3074                0.548021
8536  2560.5     41.2369                0.548962
8551  2565       41.1551                0.549311
8566  2569.5     41.07968                 0.548229
8581  2574       41.0056                0.547026
8596  2578.5     40.91974                 0.547251
8611  2583       40.8458                0.548877
8626  2587.5     40.7591                0.548356
8641  2592       40.6878                0.548791
8656  2596.5     40.6103                0.548286
8671  2601       40.527                0.547425
8686  2605.5     40.4504                0.546243
8701  2610       40.3743                0.546733
8716  2614.5     40.298                0.547415
8731  2619       40.2255                0.547478
8746  2623.5     40.1412                0.549099
8761  2628       40.06088                 0.546216
8776  2632.5     39.9794                0.549211
8791  2637       39.9053                0.548826
8806  2641.5     39.8334                0.549008
8821  2646       39.75419                 0.547887
8836  2650.5     39.6715                0.548862
8851  2655       39.59875                 0.549208
8866  2659.5     39.5214                0.549787
8881  2664       39.4433                0.550147
8896  2668.5     39.3672                0.550373
8911  2673       39.2812                0.551136
8926  2677.5     39.2063                0.550313
8941  2682       39.1251                0.550518
8956  2686.5     39.0522                0.551315
8971  2691       38.9724                0.549825
8986  2695.5     38.88862                 0.550387
9001  2700       38.8172                0.548509
9016  2704.5     38.738                0.54888
9031  2709       38.664                0.547678
9046  2713.5     38.5919                  0.548834
9061  2718       38.5083                0.548829
9076  2722.5     38.4264                0.548749
9091  2727       38.3433                0.550049
9106  2731.5     38.2669                0.549197
9121  2736       38.2022                0.549599
9136  2740.5     38.11714                 0.551172
9151  2745       38.0368                0.55124
9166  2749.5     37.9619                0.549993
9181  2754       37.8862                0.550475
9196  2758.5     37.8127                0.549633
9211  2763       37.7261                0.548364
9226  2767.5     37.6457                0.549098
9241  2772       37.5689                0.549582
9256  2776.5     37.4918                0.547765
9271  2781       37.4174                0.547154
9286  2785.5     37.33479                 0.550054
9301  2790       37.2512                0.547138
9316  2794.5     37.1836                0.545624
9331  2799       37.1021                0.54634
9346  2803.5     37.0282                0.548612
9361  2808       36.9477                0.547343
9376  2812.5     36.86346                 0.546881
9391  2817       36.7912                0.547096
9406  2821.5     36.70638                 0.546661
9421  2826       36.6333                0.546662
9436  2830.5     36.5644                0.547387
9451  2835       36.4816                0.547177
9466  2839.5     36.4003                0.547088
9481  2844       36.3237                0.547717
9496  2848.5     36.2481                0.548494
9511  2853       36.1766                0.549341
9526  2857.5     36.0898                0.549611
9541  2862       36.0097                0.549601
9556  2866.5     35.9296                0.548694
9571  2871       35.8549                0.549023
9586  2875.5     35.7817                0.548608
9601  2880       35.6972                0.548495
9616  2884.5     35.61579                 0.548747
9631  2889       35.5482                0.545913
9646  2893.5     35.4683                0.546598
9661  2898       35.3934                0.545704
9676  2902.5     35.3186                0.546985
9691  2907       35.2316                0.546313
9706  2911.5     35.1562                0.545622
9721  2916       35.0735                0.546293
9736  2920.5     35.0006                0.546949
9751  2925       34.9272                0.546377
9766  2929.5     34.8466                0.54631
9781  2934       34.768                0.545521
9796  2938.5     34.6883                0.545323
9811  2943       34.614                0.54426
9826  2947.5     34.54039                 0.545979
9841  2952       34.4551                0.544583
9856  2956.5     34.375                0.542642
9871  2961       34.2939                0.544036
9886  2965.5     34.2193                0.543281
9901  2970       34.1489                0.542214
9916  2974.5     34.0631                0.542658
9931  2979       33.9824                0.5429
9946  2983.5     33.9095                0.544541
9961  2988       33.83588                 0.543536
9976  2992.5     33.7592                0.542833
9991  2997       33.6755                0.542395
10006 3001.5     33.5929                0.543342
10021 3006       33.5182                0.543556
10036 3010.5     33.4399                0.544166
10051 3015       33.3655                0.545425
10066 3019.5     33.29                0.543766
10081 3024       33.2057                0.544691
10096 3028.5     33.136                0.544037
10111 3033       33.0528                0.543866
10126 3037.5     32.97831                 0.545449
10141 3042       32.905                0.545577
10156 3046.5     32.8225                0.545376
10171 3051       32.7442                0.546701
10186 3055.5     32.659                0.545209
10201 3060       32.5842                0.546986
10216 3064.5     32.5115                0.546218
10231 3069       32.4285                0.544629
10246 3073.5     32.3497                0.54494
10261 3078       32.2721                0.545201
10276 3082.5     32.1987                0.545092
10291 3087       32.1285                0.543934
10306 3091.5     32.0433                0.543016
10321 3096       31.9623                0.545486
10336 3100.5     31.8822                0.545559
10351 3105       31.8067                0.545102
10366 3109.5     31.7332                0.544599
10381 3114       31.6552                0.546005
10396 3118.5     31.57387                 0.545145
10411 3123       31.50007                 0.545735
10426 3127.5     31.421                0.543455
10441 3132       31.3457                0.544386
10456 3136.5     31.2628                0.544104
10471 3141       31.17816                 0.540485
10486 3145.5     31.1067                0.543272
10501 3150       31.0236                0.542582
10516 3154.5     30.9502                0.542389
10531 3159       30.8739                0.539817
10546 3163.5     30.7918                0.539748
10561 3168       30.7161                0.541587
10576 3172.5     30.6373                0.541544
10591 3177       30.563                0.539506
10606 3181.5     30.4897                0.539701
10621 3186       30.4047                0.538902
10636 3190.5     30.3238                0.539605
10651 3195       30.2422                0.539346
10666 3199.5     30.16916                 0.539714
10681 3204       30.09944                 0.539631
10696 3208.5     30.0182                0.539477
10711 3213       29.9369                0.539281
10726 3217.5     29.863                0.539354
10741 3222       29.7858                0.539977
10756 3226.5     29.7094                0.540959
10771 3231       29.6266                0.540064
10786 3235.5     29.545                0.541373
10801 3240       29.4714                0.541945
10816 3244.5     29.3908                0.54097
10831 3249       29.315                0.541186
10846 3253.5     29.2342                0.541694
10861 3258       29.1517                0.540836
10876 3262.5     29.0837                0.542127
10891 3267       29.0024                0.539486
10906 3271.5     28.9291                0.53931
10921 3276       28.85549                 0.541288
10936 3280.5     28.7729                0.539273
10951 3285       28.6967                0.540186
10966 3289.5     28.609                0.540759
10981 3294       28.536                0.53955
10996 3298.5     28.4679                0.53829
11011 3303       28.3864                0.539684
11026 3307.5     28.3028                0.540345
11041 3312       28.2275                0.541397
11056 3316.5     28.1523                0.540031
11071 3321       28.0815                0.541246
11086 3325.5     27.9956                0.540213
11101 3330       27.91641                 0.539758
11116 3334.5     27.8348                0.541231
11131 3339       27.7595                0.541281
11146 3343.5     27.6863                0.540944
11161 3348       27.5989                0.53964
11176 3352.5     27.5199                0.541391
11191 3357       27.4513                0.541257
11206 3361.5     27.3721                0.54119
11221 3366       27.2956                0.540496
11236 3370.5     27.2132                0.541161
11251 3375       27.1323                0.542397
11266 3379.5     27.0584                0.542605
11281 3384       26.9735                0.54334
11296 3388.5     26.9017                0.543143
11311 3393       26.8305                0.542229
11326 3397.5     26.7481                0.544003
11341 3402       26.6722                0.543331
11356 3406.5     26.5936                0.54391
11371 3411       26.5169                0.546339
11386 3415.5     26.4459                0.547946
11401 3420       26.36395                 0.547566
11416 3424.5     26.2812                0.548735
11431 3429       26.198                0.548733
11446 3433.5     26.1239                0.546138
11461 3438       26.0509                0.549564
11476 3442.5     25.967                0.548772
11491 3447       25.8876                0.546576
11506 3451.5     25.8141                0.547949
11521 3456       25.7405                0.548589
11536 3460.5     25.6642                0.546986
11551 3465       25.5838                0.548115
11566 3469.5     25.5004                0.548578
11581 3474       25.42372                 0.549138
11596 3478.5     25.34506                 0.549595
11611 3483       25.2709                0.548938
11626 3487.5     25.1944                0.54962
11641 3492       25.111                0.54984
11656 3496.5     25.0395                0.549367
11671 3501       24.9566                0.550616
11686 3505.5     24.8844                0.551071
11701 3510       24.8066                0.550447
11716 3514.5     24.722                0.550789
11731 3519       24.6476                0.551073
11746 3523.5     24.5616                0.550978
11761 3528       24.4907                0.55147
11776 3532.5     24.4143                0.550061
11791 3537       24.3317                  0.549038
11806 3541.5     24.2536                0.549378
11821 3546       24.1768                0.549546
11836 3550.5     24.1029                0.549486
11851 3555       24.0287                0.549211
11866 3559.5     23.94494                 0.549597
11881 3564       23.8631                0.548288
11896 3568.5     23.7823                0.549334
11911 3573       23.7072                0.548597
11926 3577.5     23.6373                0.550239
11941 3582       23.5567                0.551108
11956 3586.5     23.4768                0.551307
11971 3591       23.4052                0.551666
11986 3595.5     23.3275                0.551946
12001 3600       23.24886                 0.552372
12016 3604.5     23.16631                 0.553199
12031 3609       23.0843                0.552953
12046 3613.5     23.0124                0.553135
12061 3618       22.9309                0.552015
12076 3622.5     22.8582                0.553211
12091 3627       22.7775                0.552863
12106 3631.5     22.69334                 0.553196
12121 3636       22.6224                0.554391
12136 3640.5     22.5418                0.553592
12151 3645       22.4693                0.552067
12166 3649.5     22.4008                0.552378
12181 3654       22.3176                0.552486
12196 3658.5     22.2346                0.553547
12211 3663       22.1507                0.55392
12226 3667.5     22.0759                0.551873
12241 3672       22.008                0.552857
12256 3676.5     21.9249                0.5532
12271 3681       21.8469                0.552987
12286 3685.5     21.77245                 0.553523
12301 3690       21.6941                0.552829
12316 3694.5     21.6198                0.553155
12331 3699       21.5337                0.554313
12346 3703.5     21.4543                0.552001
12361 3708       21.3731                0.552752
12376 3712.5     21.29934                 0.553345
12391 3717       21.2237                0.552805
12406 3721.5     21.1418                0.553081
12421 3726       21.06                0.55322
12436 3730.5     20.99257                 0.552851
12451 3735       20.913                0.552061
12466 3739.5     20.8384                0.552994
12481 3744       20.757                0.552357
12496 3748.5     20.6746                0.550927
12511 3753       20.602                0.553241
12526 3757.5     20.5143                0.554126
12541 3762       20.4438                0.552135
12556 3766.5     20.37206                 0.553839
12571 3771       20.2902                0.553439
12586 3775.5     20.2104                0.555254
12601 3780       20.1337                0.555286
12616 3784.5     20.058                0.555152
12631 3789       19.9879                0.555713
12646 3793.5     19.9057                0.557019
12661 3798       19.82584                 0.556748
12676 3802.5     19.7424                0.556997
12691 3807       19.6664                0.556594
12706 3811.5     19.5932                0.555431
12721 3816       19.5094                0.556759
12736 3820.5     19.4294                0.556892
12751 3825       19.35765                 0.55588
12766 3829.5     19.28277                 0.554583
12781 3834       19.2055                0.556099
12796 3838.5     19.1273                0.555678
12811 3843       19.0447                0.556394
12826 3847.5     18.9691                0.557613
12841 3852       18.8894                0.558176
12856 3856.5     18.81451                 0.557704
12871 3861       18.7406                0.558038
12886 3865.5     18.6572                0.557444
12901 3870       18.5842                0.558189
12916 3874.5     18.5017                0.557865
12931 3879       18.4301                0.558825
12946 3883.5     18.3576                0.559071
12961 3888       18.2742                0.559469
12976 3892.5     18.19533                 0.558687
12991 3897       18.1096                0.55776
13006 3901.5     18.0359                0.558214
13021 3906       17.9625                0.557695
13036 3910.5     17.8764                0.557344
13051 3915       17.7978                0.558847
13066 3919.5     17.72337                 0.558047
13081 3924       17.6479                0.556656
13096 3928.5     17.5774                0.557246
13111 3933       17.4901                0.558054
13126 3937.5     17.4121                0.557478
13141 3942       17.331                0.557023
13156 3946.5     17.2569                0.558014
13171 3951       17.1846                0.558489
13186 3955.5     17.1067                0.558271
13201 3960       17.02263                 0.557883
13216 3964.5     16.953                0.55819
13231 3969       16.8743                0.558947
13246 3973.5     16.7998                0.558988
13261 3978       16.7153                0.559463
13276 3982.5     16.6314                0.560546
13291 3987       16.5609                0.560656
13306 3991.5     16.477                0.560374
13321 3996       16.406                0.560274
13336 4000.5     16.3268                0.560559
13351 4005       16.2437                0.560833
13366 4009.5     16.1711                0.559724
13381 4014       16.091                0.559354
13396 4018.5     16.0168                0.559129
13411 4023       15.9469                0.560573
13426 4027.5     15.8647                0.560225
13441 4032       15.7851                0.560044
13456 4036.5     15.7003                0.561001
13471 4041       15.6261                0.560087
13486 4045.5     15.5581                0.559939
13501 4050       15.4751                0.560321
13516 4054.5     15.3966                0.55973
13531 4059       15.3203                0.559304
13546 4063.5     15.246                0.560032
13561 4068       15.1705                0.560397
13576 4072.5     15.0899                0.560408
13591 4077       15.0095                0.560219
13606 4081.5     14.93309                 0.560211
13621 4086       14.85409                 0.561332
13636 4090.5     14.7789                0.559633
13651 4095       14.6963                0.559857
13666 4099.5     14.6141                0.559392
13681 4104       14.5447                0.55829
13696 4108.5     14.4652                0.559065
13711 4113       14.391                0.558895
13726 4117.5     14.3117                0.559257
13741 4122       14.2299                0.558828
13756 4126.5     14.1565                0.560167
13771 4131       14.0686                0.560246
13786 4135.5     13.9974                0.560402
13801 4140       13.9277                0.561879
13816 4144.5     13.8475                0.561008
13831 4149       13.76808                 0.560595
13846 4153.5     13.6922                0.561824
13861 4158       13.6162                0.561366
13876 4162.5     13.5465                0.563006
13891 4167       13.4617                0.561691
13906 4171.5     13.3825                0.562597
13921 4176       13.30351                 0.563056
13936 4180.5     13.2277                0.562337
13951 4185       13.1542                0.562487
13966 4189.5     13.06893                 0.562798
13981 4194       12.9887                0.563006
13996 4198.5     12.9175                0.561785
14011 4203       12.8412                0.562407
14026 4207.5     12.7664                0.56467
14041 4212       12.6892                0.563792
14056 4216.5     12.6049                0.56414
14071 4221       12.5331                0.564662
14086 4225.5     12.4507                0.563671
14101 4230       12.3759                0.564091
14116 4234.5     12.3029                0.564269
14131 4239       12.2223                0.56523
14146 4243.5     12.1481                0.56317
14161 4248       12.0676                0.564662
14176 4252.5     11.9934                0.564197
14191 4257       11.9195                0.564336
14206 4261.5     11.8379                0.563449
14221 4266       11.7574                0.564709
14236 4270.5     11.67401                 0.564386
14251 4275       11.5996                0.563724
14266 4279.5     11.529                0.562982
14281 4284       11.4452                0.562852
14296 4288.5     11.3669                0.56339
14311 4293       11.2943                0.563002
14326 4297.5     11.2199                0.56243
14341 4302       11.1436                0.563381
14356 4306.5     11.0599                0.563578
14371 4311       10.9813                0.563039
14386 4315.5     10.9045                0.563548
14401 4320       10.8281                0.564607
14416 4324.5     10.7539                0.564668
14431 4329       10.6785                0.564642
14446 4333.5     10.5947                0.565717
14461 4338       10.5266                0.565422
14476 4342.5     10.445                0.56625
14491 4347       10.3717                0.566002
14506 4351.5     10.2966                0.566629
14521 4356       10.2161                0.566663
14536 4360.5     10.139                0.567186
14551 4365       10.056                0.567198
14566 4369.5     9.983682                 0.567885
14581 4374       9.908243                 0.568777
14596 4378.5     9.829547                 0.569138
14611 4383       9.74856                  0.56782
14626 4387.5     9.675988                 0.568138
14641 4392       9.601129                 0.568344
14656 4396.5     9.532182                 0.569129
14671 4401       9.450958                 0.569455
14686 4405.5     9.37134                  0.569931
14701 4410       9.29605                  0.571265
14716 4414.5     9.218923                 0.571569
14731 4419       9.143596                 0.572389
14746 4423.5     9.070135                 0.573868
14761 4428       8.987715                 0.573059
14776 4432.5     8.920197                 0.574602
14791 4437       8.838932                 0.575662
14806 4441.5     8.767699                 0.576975
14821 4446       8.693818                 0.578793
14836 4450.5     8.614176                 0.580114
14851 4455       8.535681                 0.580599
14866 4459.5     8.453936                 0.582753
14881 4464       8.382574                 0.584117
14896 4468.5     8.31232                  0.585947
14911 4473       8.231197                 0.588586
14926 4477.5     8.15466                  0.590323
14941 4482       8.08214                  0.592388
14956 4486.5     8.008393                 0.595639
14971 4491       7.93599                  0.597801
14986 4495.5     7.855617                 0.600695
15001 4500       7.776266                 0.603122