File: rawdata/SM_LPS_in_H2O_h3.txt
SM_LPS_in_H2O
Creation Date : 12/20/2018 2:24:23 PM
User : PSCM

HeatFlow :
 Initial Mass : 497 mg
 Molar Mass : N/A

Index Time (s)   Furnace Temperature (Â°C) HeatFlow (mW)
1     0          4.527529                 0.494913
17    4.8        4.447276                 0.470629
33    9.6        4.17682                  0.447728
49    14.4       3.841581                 0.428731
65    19.2       3.574262                 0.415639
81    24         3.381868                 0.40813
97    28.8       3.283138                 0.406813
113   33.6       3.201856                 0.411804
129   38.4       3.195886                 0.420508
145   43.2       3.166227                 0.432873
161   48         3.165939                 0.447769
177   52.8       3.197663                 0.463652
193   57.6       3.212257                 0.480676
209   62.4       3.245269                 0.496791
225   67.2       3.279135                 0.511765
241   72         3.335652                 0.524742
257   76.8       3.39174                  0.536281
273   81.6       3.451657                 0.54472
289   86.4       3.505833                 0.551331
305   91.2       3.565951                 0.555048
321   96         3.635317                 0.556074
337   100.8      3.69689                  0.555205
353   105.6      3.764902                 0.551605
369   110.4      3.834284                 0.545
385   115.2      3.910122                 0.536833
401   120        3.984744                 0.525589
417   124.8      4.061708                 0.512954
433   129.6      4.135491                 0.497916
449   134.4      4.212526                 0.481655
465   139.2      4.291641                 0.462846
481   144        4.370353                 0.442323
497   148.8      4.45019                  0.420097
513   153.6      4.530639                 0.39673
529   158.4      4.611934                 0.372682
545   163.2      4.693456                 0.347941
561   168        4.738491                 0.322685
577   172.8      4.751479                 0.296233
593   177.6      4.78533                  0.270747
609   182.4      4.847479                 0.244555
625   187.2      4.929333                 0.218303
641   192        5.002871                 0.191627
657   196.8      5.079833                 0.165696
673   201.6      5.159866                 0.139249
689   206.4      5.243294                 0.112528
705   211.2      5.337035                 0.08639
721   216        5.416577                 0.059669
737   220.8      5.501111                 0.034531
753   225.6      5.5857                   0.008672
769   230.4      5.677442                 -0.015795
785   235.2      5.768376                 -0.040342
801   240        5.849325                 -0.06375
817   244.8      5.940293                 -0.087718
833   249.6      6.028221                 -0.110413
849   254.4      6.124343                 -0.133088
865   259.2      6.207242                 -0.153906
881   264        6.296854                 -0.175003
897   268.8      6.388087                 -0.195231
913   273.6      6.485587                 -0.213914
929   278.4      6.573254                 -0.23231
945   283.2      6.655145                 -0.249217
961   288        6.74784                  -0.26653
977   292.8      6.840522                 -0.283282
993   297.6      6.94052                  -0.298973
1009  302.4      7.026547                 -0.314066
1025  307.2      7.116201                 -0.328165
1041  312        7.202771                 -0.341774
1057  316.8      7.298399                 -0.355676
1073  321.6      7.382409                 -0.368327
1089  326.4      7.46787                  -0.381116
1105  331.2      7.557139                 -0.39421
1121  336        7.64968                  -0.405957
1137  340.8      7.745322                 -0.418
1153  345.6      7.828722                 -0.428639
1169  350.4      7.919989                 -0.439341
1185  355.2      8.007312                 -0.450318
1201  360        8.102566                 -0.459721
1217  364.8      8.190295                 -0.468827
1233  369.6      8.273419                 -0.477025
1249  374.4      8.359772                 -0.484332
1265  379.2      8.449746                 -0.491956
1281  384        8.547872                 -0.499225
1297  388.8      8.632621                 -0.506917
1313  393.6      8.719127                 -0.514263
1329  398.4      8.803632                 -0.52003
1345  403.2      8.895621                 -0.527955
1361  408        8.983148                 -0.533078
1377  412.8      9.063317                 -0.538659
1393  417.6      9.1527                   -0.544077
1409  422.4      9.239477                 -0.549627
1425  427.2      9.332353                 -0.5539
1441  432        9.412599                 -0.556687
1457  436.8      9.497335                 -0.56101
1473  441.6      9.58814                  -0.564007
1489  446.4      9.677052                 -0.565938
1505  451.2      9.762383                 -0.568066
1521  456        9.845395                 -0.569787
1537  460.8      9.933365                 -0.57109
1553  465.6      10.011                -0.571706
1569  470.4      10.1063                -0.573306
1585  475.2      10.1946                -0.57547
1601  480        10.2751                -0.575597
1617  484.8      10.36492                 -0.576619
1633  489.6      10.452                -0.576709
1649  494.4      10.5435                -0.577747
1665  499.2      10.6212                -0.578479
1681  504        10.7024                -0.579439
1697  508.8      10.7853                -0.57994
1713  513.6      10.8719                -0.580329
1729  518.4      10.9622                -0.582235
1745  523.2      11.0436                -0.582903
1761  528        11.127                -0.584147
1777  532.8      11.21221                 -0.584535
1793  537.6      11.3024                -0.584288
1809  542.4      11.3891                -0.584233
1825  547.2      11.4671                -0.58405
1841  552        11.5539                -0.583851
1857  556.8      11.6323                -0.584484
1873  561.6      11.7243                -0.584617
1889  566.4      11.8091                -0.584096
1905  571.2      11.8884                -0.585344
1921  576        11.9772                -0.586347
1937  580.8      12.0648                -0.586683
1953  585.6      12.1535                -0.586315
1969  590.4      12.2287                -0.586265
1985  595.2      12.3095                -0.586839
2001  600        12.39204                 -0.587178
2017  604.8      12.4792                -0.587513
2033  609.6      12.5674                -0.588054
2049  614.4      12.6471                -0.588392
2065  619.2      12.7285                -0.588982
2081  624        12.8151                -0.58874
2097  628.8      12.9022                -0.587741
2113  633.6      12.9851                -0.587779
2129  638.4      13.0658                -0.587756
2145  643.2      13.1507                -0.586381
2161  648        13.2257                -0.586592
2177  652.8      13.3209                -0.585955
2193  657.6      13.4076                -0.585727
2209  662.4      13.4841                -0.58585
2225  667.2      13.5756                -0.584128
2241  672        13.6559                -0.583536
2257  676.8      13.74314                 -0.583516
2273  681.6      13.8198                -0.583199
2289  686.4      13.8997                -0.583035
2305  691.2      13.9853                -0.582896
2321  696        14.0722                -0.582173
2337  700.8      14.1616                -0.584004
2353  705.6      14.2363                -0.584325
2369  710.4      14.3169                -0.584776
2385  715.2      14.4074                -0.585052
2401  720        14.4932                -0.585678
2417  724.8      14.5827                -0.585472
2433  729.6      14.6611                -0.585931
2449  734.4      14.73926                 -0.585214
2465  739.2      14.8178                -0.585369
2481  744        14.90698                 -0.584376
2497  748.8      14.9971                -0.585478
2513  753.6      15.0781                -0.584634
2529  758.4      15.1595                -0.585566
2545  763.2      15.239                -0.585761
2561  768        15.32704                 -0.585543
2577  772.8      15.40902                 -0.585348
2593  777.6      15.4876                -0.585639
2609  782.4      15.5748                -0.585707
2625  787.2      15.6505                -0.585961
2641  792        15.7453                -0.587328
2657  796.8      15.8255                -0.586925
2673  801.6      15.9013                -0.587525
2689  806.4      15.9936                -0.587694
2705  811.2      16.0777                -0.586606
2721  816        16.1666                -0.585877
2737  820.8      16.2392                -0.585665
2753  825.6      16.3178                -0.585085
2769  830.4      16.4039                -0.583698
2785  835.2      16.4909                -0.583839
2801  840        16.583                -0.58436
2817  844.8      16.6605                -0.584699
2833  849.6      16.7414                -0.58388
2849  854.4      16.8261                -0.584995
2865  859.2      16.9096                -0.583827
2881  864        17.0019                -0.582466
2897  868.8      17.0782                -0.582417
2913  873.6      17.1565                -0.582827
2929  878.4      17.2352                -0.582487
2945  883.2      17.322                -0.581299
2961  888        17.4096                -0.582774
2977  892.8      17.4916                -0.583278
2993  897.6      17.57289                 -0.583062
3009  902.4      17.6567                -0.583115
3025  907.2      17.7449                -0.581964
3041  912        17.8309                -0.582052
3057  916.8      17.9064                -0.581067
3073  921.6      17.9918                -0.580814
3089  926.4      18.0678                -0.581299
3105  931.2      18.1603                -0.580768
3121  936        18.2456                -0.579919
3137  940.8      18.3216                -0.580353
3153  945.6      18.4127                -0.580263
3169  950.4      18.49376                 -0.580685
3185  955.2      18.57964                 -0.579915
3201  960        18.6568                -0.581354
3217  964.8      18.7324                -0.581729
3233  969.6      18.819                -0.579828
3249  974.4      18.9073                -0.581731
3265  979.2      18.9968                -0.582302
3281  984        19.0704                -0.582704
3297  988.8      19.1515                -0.583008
3313  993.6      19.2397                -0.583386
3329  998.4      19.3252                -0.583806
3345  1003.2     19.41398                 -0.584121
3361  1008       19.4881                -0.583174
3377  1012.8     19.56949                 -0.582218
3393  1017.6     19.6504                -0.581546
3409  1022.4     19.7374                -0.580244
3425  1027.2     19.82945                 -0.581693
3441  1032       19.909                -0.581813
3457  1036.8     19.9872                -0.581398
3473  1041.6     20.0708                -0.579889
3489  1046.4     20.1589                -0.580344
3505  1051.2     20.2408                -0.580015
3521  1056       20.32023                 -0.580608
3537  1060.8     20.4027                -0.580168
3553  1065.6     20.4816                -0.579207
3569  1070.4     20.57402                 -0.579412
3585  1075.2     20.6553                -0.580601
3601  1080       20.7331                -0.580173
3617  1084.8     20.8224                -0.581072
3633  1089.6     20.905                -0.581112
3649  1094.4     20.9945                -0.580454
3665  1099.2     21.075                -0.580407
3681  1104       21.1477                -0.581089
3697  1108.8     21.2361                -0.581312
3713  1113.6     21.319                -0.579394
3729  1118.4     21.4104                -0.58025
3745  1123.2     21.4902                -0.580287
3761  1128       21.5668                -0.580637
3777  1132.8     21.6538                -0.580309
3793  1137.6     21.7412                -0.579971
3809  1142.4     21.8296                -0.580499
3825  1147.2     21.90426                 -0.580992
3841  1152       21.9844                -0.579897
3857  1156.8     22.0653                -0.580958
3873  1161.6     22.1513                -0.580357
3889  1166.4     22.2416                -0.581319
3905  1171.2     22.319                -0.582021
3921  1176       22.4006                -0.58192
3937  1180.8     22.4867                -0.581515
3953  1185.6     22.5728                -0.581855
3969  1190.4     22.6538                -0.581912
3985  1195.2     22.73252                 -0.580796
4001  1200       22.8148                -0.580205
4017  1204.8     22.8957                -0.578885
4033  1209.6     22.9855                -0.579167
4049  1214.4     23.0753                -0.579484
4065  1219.2     23.1539                -0.57871
4081  1224       23.2392                -0.579453
4097  1228.8     23.3141                -0.578866
4113  1233.6     23.4077                -0.577901
4129  1238.4     23.4894                -0.577571
4145  1243.2     23.5651                -0.577037
4161  1248       23.6506                -0.577691
4177  1252.8     23.7287                -0.577307
4193  1257.6     23.8198                -0.578645
4209  1262.4     23.8998                -0.578443
4225  1267.2     23.9762                -0.578694
4241  1272       24.0681                -0.577071
4257  1276.8     24.1537                -0.578126
4273  1281.6     24.2423                -0.576885
4289  1286.4     24.3178                -0.575022
4305  1291.2     24.3946                -0.575354
4321  1296       24.4772                -0.576092
4337  1300.8     24.5661                -0.575982
4353  1305.6     24.6579                -0.575694
4369  1310.4     24.736                -0.575921
4385  1315.2     24.8133                -0.576288
4401  1320       24.8992                -0.578125
4417  1324.8     24.9837                -0.576607
4433  1329.6     25.07444                 -0.57666
4449  1334.4     25.1507                -0.577883
4465  1339.2     25.2312                -0.578309
4481  1344       25.308                -0.578165
4497  1348.8     25.3967                -0.57938
4513  1353.6     25.4842                -0.581165
4529  1358.4     25.5636                -0.580945
4545  1363.2     25.6456                -0.580885
4561  1368       25.7288                -0.580663
4577  1372.8     25.8165                -0.579469
4593  1377.6     25.8969                -0.579774
4609  1382.4     25.9764                -0.578482
4625  1387.2     26.06288                 -0.577954
4641  1392       26.1417                -0.579241
4657  1396.8     26.2314                -0.577643
4673  1401.6     26.3179                -0.578712
4689  1406.4     26.3946                -0.578292
4705  1411.2     26.4831                -0.579246
4721  1416       26.5628                -0.578752
4737  1420.8     26.6513                -0.576657
4753  1425.6     26.7288                -0.576212
4769  1430.4     26.8043                -0.576816
4785  1435.2     26.8934                -0.57715
4801  1440       26.9774                -0.576474
4817  1444.8     27.0662                -0.578342
4833  1449.6     27.1434                -0.577989
4849  1454.4     27.2222                -0.579512
4865  1459.2     27.312                -0.579434
4881  1464       27.3994                -0.578932
4897  1468.8     27.4893                -0.580063
4913  1473.6     27.561                -0.581122
4929  1478.4     27.6398                -0.58011
4945  1483.2     27.721                -0.579771
4961  1488       27.80854                 -0.57939
4977  1492.8     27.9038                -0.579481
4993  1497.6     27.983                -0.579603
5009  1502.4     28.0578                -0.58056
5025  1507.2     28.1415                -0.579912
5041  1512       28.2283                -0.581296
5057  1516.8     28.3131                -0.58099
5073  1521.6     28.3914                -0.579658
5089  1526.4     28.4732                -0.58012
5105  1531.2     28.5546                -0.580714
5121  1536       28.6425                -0.580085
5137  1540.8     28.725                -0.58094
5153  1545.6     28.8067                -0.582134
5169  1550.4     28.8921                -0.583425
5185  1555.2     28.974                -0.58278
5201  1560       29.0623                -0.583219
5217  1564.8     29.1414                -0.580704
5233  1569.6     29.2179                -0.580617
5249  1574.4     29.3063                -0.57946
5265  1579.2     29.3853                -0.578649
5281  1584       29.47819                 -0.578732
5297  1588.8     29.5624                -0.579174
5313  1593.6     29.6344                -0.580251
5329  1598.4     29.7253                  -0.578426
5345  1603.2     29.8091                -0.578648
5361  1608       29.8979                -0.578446
5377  1612.8     29.9749                -0.577763
5393  1617.6     30.051                -0.57783
5409  1622.4     30.1353                -0.578293
5425  1627.2     30.2213                -0.577972
5441  1632       30.3122                -0.577745
5457  1636.8     30.3854                -0.578112
5473  1641.6     30.4662                -0.578137
5489  1646.4     30.5559                -0.577446
5505  1651.2     30.6409                -0.578798
5521  1656       30.7308                -0.578101
5537  1660.8     30.807                -0.577377
5553  1665.6     30.8857                -0.577095
5569  1670.4     30.966                -0.577429
5585  1675.2     31.0522                -0.576577
5601  1680       31.14476                 -0.578205
5617  1684.8     31.2244                -0.577943
5633  1689.6     31.302                -0.579005
5649  1694.4     31.3852                -0.577837
5665  1699.2     31.4739                -0.578929
5681  1704       31.5574                -0.579671
5697  1708.8     31.6379                -0.579415
5713  1713.6     31.7194                -0.57841
5729  1718.4     31.7959                -0.579377
5745  1723.2     31.8867                -0.57945
5761  1728       31.9701                -0.58034
5777  1732.8     32.04923                 -0.581746
5793  1737.6     32.1368                -0.580393
5809  1742.4     32.2173                -0.582288
5825  1747.2     32.3079                -0.581296
5841  1752       32.3834                -0.581667
5857  1756.8     32.4603                -0.581713
5873  1761.6     32.5501                -0.580453
5889  1766.4     32.6308                -0.580084
5905  1771.2     32.721                -0.579288
5921  1776       32.804                -0.579164
5937  1780.8     32.8807                -0.578869
5953  1785.6     32.9668                -0.580641
5969  1790.4     33.0514                -0.579044
5985  1795.2     33.1407                -0.5781
6001  1800       33.2153                -0.578832
6017  1804.8     33.2921                -0.577995
6033  1809.6     33.3778                -0.576855
6049  1814.4     33.4667                -0.576759
6065  1819.2     33.55631                 -0.577383
6081  1824       33.6305                -0.578101
6097  1828.8     33.7101                -0.579579
6113  1833.6     33.7992                -0.579621
6129  1838.4     33.8833                -0.57825
6145  1843.2     33.9748                -0.57857
6161  1848       34.0487                -0.579483
6177  1852.8     34.1272                -0.577428
6193  1857.6     34.2099                -0.578597
6209  1862.4     34.2981                -0.578268
6225  1867.2     34.3891                -0.577817
6241  1872       34.4675                -0.577898
6257  1876.8     34.5449                -0.579791
6273  1881.6     34.6296                -0.57958
6289  1886.4     34.7161                -0.577403
6305  1891.2     34.8013                -0.578045
6321  1896       34.8804                -0.577273
6337  1900.8     34.9634                -0.577792
6353  1905.6     35.0384                -0.578512
6369  1910.4     35.1299                -0.578658
6385  1915.2     35.214                -0.579368
6401  1920       35.2919                -0.57854
6417  1924.8     35.3813                -0.578885
6433  1929.6     35.4619                -0.578116
6449  1934.4     35.5496                -0.577934
6465  1939.2     35.6258                -0.576246
6481  1944       35.7042                -0.577029
6497  1948.8     35.7944                -0.575116
6513  1953.6     35.8759                -0.573611
6529  1958.4     35.9656                -0.574515
6545  1963.2     36.0472                -0.571972
6561  1968       36.1216                -0.571463
6577  1972.8     36.2112                -0.569159
6593  1977.6     36.2965                -0.566133
6609  1982.4     36.3866                -0.564241
6625  1987.2     36.4603                -0.563735
6641  1992       36.5381                -0.561809
6657  1996.8     36.6206                -0.561668
6673  2001.6     36.7108                -0.5595
6689  2006.4     36.79967                 -0.558779
6705  2011.2     36.8734                -0.558158
6721  2016       36.9542                -0.558106
6737  2020.8     37.0407                -0.557082
6753  2025.6     37.1272                -0.554802
6769  2030.4     37.2181                -0.552466
6785  2035.2     37.2935                -0.554162
6801  2040       37.3704                -0.552702
6817  2044.8     37.4515                -0.553045
6833  2049.6     37.5384                -0.552549
6849  2054.4     37.6323                -0.552703
6865  2059.2     37.7108                -0.552012
6881  2064       37.7888                -0.553121
6897  2068.8     37.8711                -0.553955
6913  2073.6     37.9588                -0.55236
6929  2078.4     38.0449                -0.552394
6945  2083.2     38.1228                  -0.553755
6961  2088       38.2043                -0.555809
6977  2092.8     38.2836                -0.556191
6993  2097.6     38.3737                -0.558599
7009  2102.4     38.4568                -0.558859
7025  2107.2     38.5336                -0.560764
7041  2112       38.6221                -0.55892
7057  2116.8     38.7035                -0.559044
7073  2121.6     38.794                -0.558605
7089  2126.4     38.8711                -0.559248
7105  2131.2     38.9471                -0.557347
7121  2136       39.03724                 -0.55795
7137  2140.8     39.1177                -0.557712
7153  2145.6     39.2068                -0.557842
7169  2150.4     39.2908                -0.558293
7185  2155.2     39.3651                -0.557989
7201  2160       39.4556                -0.558054
7217  2164.8     39.5395                -0.559209
7233  2169.6     39.6274                -0.55837
7249  2174.4     39.6999                -0.558893
7265  2179.2     39.7791                  -0.55889
7281  2184       39.86334                 -0.559934
7297  2188.8     39.9531                -0.55867
7313  2193.6     40.0438                -0.559731
7329  2198.4     40.1153                -0.560114
7345  2203.2     40.1951                -0.559256
7361  2208       40.2855                -0.562227
7377  2212.8     40.3711                -0.563536
7393  2217.6     40.4625                -0.563098
7409  2222.4     40.5358                -0.562211
7425  2227.2     40.61304                 -0.562699
7441  2232       40.6952                -0.562291
7457  2236.8     40.7831                -0.562582
7473  2241.6     40.8761                -0.562608
7489  2246.4     40.9553                -0.563065
7505  2251.2     41.0303                -0.562752
7521  2256       41.1147                -0.561201
7537  2260.8     41.2016                -0.562236
7553  2265.6     41.2855                -0.561711
7569  2270.4     41.3654                -0.561059
7585  2275.2     41.4479                -0.561052
7601  2280       41.5257                -0.559651
7617  2284.8     41.6176                -0.561687
7633  2289.6     41.6998                -0.560848
7649  2294.4     41.77758                 -0.562725
7665  2299.2     41.8649                -0.561636
7681  2304       41.94736                 -0.561618
7697  2308.8     42.0364                -0.561855
7713  2313.6     42.1141                -0.55999
7729  2318.4     42.19057                 -0.561142
7745  2323.2     42.2781                -0.560449
7761  2328       42.361                -0.560237
7777  2332.8     42.4523                -0.561459
7793  2337.6     42.5349                -0.56245
7809  2342.4     42.6071                -0.563722
7825  2347.2     42.698                -0.564014
7841  2352       42.7847                -0.566172
7857  2356.8     42.871                -0.566155
7873  2361.6     42.9474                -0.566817
7889  2366.4     43.0248                -0.568612
7905  2371.2     43.1085                -0.568618
7921  2376       43.1944                -0.569078
7937  2380.8     43.28607                 -0.569071
7953  2385.6     43.3592                -0.572897
7969  2390.4     43.4403                -0.573512
7985  2395.2     43.5285                -0.574556
8001  2400       43.6151                -0.575814
8017  2404.8     43.7047                -0.57382
8033  2409.6     43.7798                -0.576476
8049  2414.4     43.8554                -0.574904
8065  2419.2     43.9396                -0.576602
8081  2424       44.0268                -0.577922
8097  2428.8     44.1196                -0.577734
8113  2433.6     44.1966                -0.578586
8129  2438.4     44.2743                -0.578042
8145  2443.2     44.3574                -0.578897
8161  2448       44.4437                -0.578192
8177  2452.8     44.5309                -0.579221
8193  2457.6     44.6063                -0.581613
8209  2462.4     44.689                -0.583462
8225  2467.2     44.76962                 -0.58142
8241  2472       44.8575                -0.583642
8257  2476.8     44.9434                -0.582939
8273  2481.6     45.0221                -0.584362
8289  2486.4     45.1071                -0.583168
8305  2491.2     45.1895                -0.584297
8321  2496       45.2786                -0.584832
8337  2500.8     45.3569                -0.583802
8353  2505.6     45.4363                -0.584308
8369  2510.4     45.5228                -0.583733
8385  2515.2     45.6008                -0.582531
8401  2520       45.6921                -0.583584
8417  2524.8     45.7788                -0.582668
8433  2529.6     45.8523                -0.582366
8449  2534.4     45.942                -0.581844
8465  2539.2     46.0242                -0.584602
8481  2544       46.1104                -0.58295
8497  2548.8     46.1884                -0.581394
8513  2553.6     46.2646                -0.580959
8529  2558.4     46.3545                -0.5813
8545  2563.2     46.4372                -0.582832
8561  2568       46.52863                 -0.581625
8577  2572.8     46.6025                -0.581797
8593  2577.6     46.6806                -0.583923
8609  2582.4     46.7712                -0.584614
8625  2587.2     46.8594                -0.583966
8641  2592       46.9493                -0.584327
8657  2596.8     47.0189                -0.585316
8673  2601.6     47.0969                -0.583427
8689  2606.4     47.1818                -0.584263
8705  2611.2     47.27206                 -0.581763
8721  2616       47.3633                -0.582578
8737  2620.8     47.44                -0.583249
8753  2625.6     47.514                -0.581843
8769  2630.4     47.6027                -0.581519
8785  2635.2     47.6863                -0.581393
8801  2640       47.7784                -0.583167
8817  2644.8     47.8535                -0.582068
8833  2649.6     47.9331                -0.582939
8849  2654.4     48.0145                -0.58251
8865  2659.2     48.1019                -0.582501
8881  2664       48.187                -0.581461
8897  2668.8     48.2663                -0.58316
8913  2673.6     48.3474                -0.584978
8929  2678.4     48.4344                -0.583548
8945  2683.2     48.5205                -0.582122
8961  2688       48.6007                -0.581069
8977  2692.8     48.6806                -0.5817
8993  2697.6     48.766                -0.581059
9009  2702.4     48.8438                -0.582675
9025  2707.2     48.9344                -0.580919
9041  2712       49.024                -0.580248
9057  2716.8     49.0969                -0.580509
9073  2721.6     49.1835                -0.581346
9089  2726.4     49.2633                -0.580041
9105  2731.2     49.3533                -0.579098
9121  2736       49.4367                -0.57789
9137  2740.8     49.5104                -0.578973
9153  2745.6     49.5977                -0.578827
9169  2750.4     49.6763                -0.578919
9185  2755.2     49.7685                -0.580494
9201  2760       49.8471                -0.580174
9217  2764.8     49.9246                -0.581627
9233  2769.6     50.0164                -0.580526
9249  2774.4     50.0981                -0.578712
9265  2779.2     50.1854                -0.579847
9281  2784       50.2641                -0.579176
9297  2788.8     50.3401                -0.580561
9313  2793.6     50.4274                -0.580092
9329  2798.4     50.5112                -0.58
9345  2803.2     50.6044                -0.581329
9361  2808       50.67974                 -0.577777
9377  2812.8     50.7562                -0.58072
9393  2817.6     50.8441                -0.579912
9409  2822.4     50.9324                -0.581659
9425  2827.2     51.0194                -0.580883
9441  2832       51.0909                -0.580181
9457  2836.8     51.1712                -0.581331
9473  2841.6     51.2565                -0.581908
9489  2846.4     51.3453                -0.583636
9505  2851.2     51.43376                 -0.581868
9521  2856       51.508                -0.582273
9537  2860.8     51.5884                -0.582081
9553  2865.6     51.6758                -0.582649
9569  2870.4     51.7613                -0.581326
9585  2875.2     51.8488                -0.582453
9601  2880       51.9219                -0.581992
9617  2884.8     52.0017                -0.580061
9633  2889.6     52.0862                -0.580153
9649  2894.4     52.1777                -0.580213
9665  2899.2     52.2661                -0.579206
9681  2904       52.3451                -0.579445
9697  2908.8     52.4217                -0.578688
9713  2913.6     52.5062                -0.579303
9729  2918.4     52.5951                -0.578539
9745  2923.2     52.6751                -0.578955
9761  2928       52.7532                -0.57896
9777  2932.8     52.8381                -0.57788
9793  2937.6     52.9185                -0.578851
9809  2942.4     53.0116                -0.579333
9825  2947.2     53.0904                -0.579011
9841  2952       53.1691                -0.579883
9857  2956.8     53.2563                -0.581786
9873  2961.6     53.3391                -0.580875
9889  2966.4     53.4295                -0.579613
9905  2971.2     53.5102                -0.581967
9921  2976       53.5834                -0.579625
9937  2980.8     53.6715                -0.581489
9953  2985.6     53.7482                -0.580544
9969  2990.4     53.8437                -0.580127
9985  2995.2     53.9283                -0.580027
10001 3000       53.9994                -0.578818
10017 3004.8     54.0879                -0.581438
10033 3009.6     54.172                -0.58048
10049 3014.4     54.2643                -0.579754
10065 3019.2     54.3371                -0.579444
10081 3024       54.4098                -0.580872
10097 3028.8     54.5004                -0.580361
10113 3033.6     54.5881                -0.580838
10129 3038.4     54.6775                -0.57949
10145 3043.2     54.7492                -0.580197
10161 3048       54.8291                -0.579521
10177 3052.8     54.9203                -0.578887
10193 3057.6     55.0082                -0.579155
10209 3062.4     55.0938                -0.582355
10225 3067.2     55.1634                -0.578098
10241 3072       55.24437                 -0.578816
10257 3076.8     55.3301                -0.581937
10273 3081.6     55.4198                -0.580649
10289 3086.4     55.5103                -0.58012
10305 3091.2     55.587                -0.581391
10321 3096       55.6655                -0.578086
10337 3100.8     55.75125                 -0.576926
10353 3105.6     55.8338                -0.577237
10369 3110.4     55.9259                -0.579427
10385 3115.2     56.0038                -0.577777
10401 3120       56.0807                -0.577612
10417 3124.8     56.1601                -0.577786
10433 3129.6     56.249                -0.579071
10449 3134.4     56.33648                 -0.578357
10465 3139.2     56.414                -0.577418
10481 3144       56.49579                 -0.57613
10497 3148.8     56.582                -0.578359
10513 3153.6     56.6685                -0.577618
10529 3158.4     56.7547                -0.576057
10545 3163.2     56.83183                 -0.575415
10561 3168       56.913                -0.574585
10577 3172.8     56.9912                -0.574766
10593 3177.6     57.0819                -0.575566
10609 3182.4     57.1732                -0.573929
10625 3187.2     57.2477                -0.575959
10641 3192       57.3317                -0.574425
10657 3196.8     57.4082                -0.57546
10673 3201.6     57.501                -0.577208
10689 3206.4     57.5855                -0.576397
10705 3211.2     57.6592                -0.577397
10721 3216       57.7479                -0.577306
10737 3220.8     57.8246                -0.577443
10753 3225.6     57.91775                 -0.577708
10769 3230.4     57.9959                -0.580048
10785 3235.2     58.0713                -0.581086
10801 3240       58.1632                -0.578771
10817 3244.8     58.2503                -0.579462
10833 3249.6     58.3352                -0.579752
10849 3254.4     58.4095                -0.579327
10865 3259.2     58.4842                -0.579989
10881 3264       58.5748                -0.580175
10897 3268.8     58.6618                -0.579404
10913 3273.6     58.7534                -0.576715
10929 3278.4     58.8288                -0.576021
10945 3283.2     58.9036                -0.57813
10961 3288       58.9926                -0.578298
10977 3292.8     59.0827                -0.575383
10993 3297.6     59.1695                -0.576689
11009 3302.4     59.2372                -0.576227
11025 3307.2     59.3168                -0.576909
11041 3312       59.4037                -0.576945
11057 3316.8     59.4958                -0.577009
11073 3321.6     59.583                -0.574898
11089 3326.4     59.6533                -0.576263
11105 3331.2     59.7334                -0.577135
11121 3336       59.82635                 -0.579072
11137 3340.8     59.9111                -0.577179
11153 3345.6     60.0011                -0.577427
11169 3350.4     60.073                -0.578948
11185 3355.2     60.1532                -0.578861
11201 3360       60.236                -0.577935
11217 3364.8     60.32176                 -0.57784
11233 3369.6     60.4156                -0.57595
11249 3374.4     60.4942                -0.577359
11265 3379.2     60.57067                 -0.580098
11281 3384       60.65649                 -0.579128
11297 3388.8     60.7411                -0.577294
11313 3393.6     60.8282                -0.577435
11329 3398.4     60.9069                -0.578448
11345 3403.2     60.987                -0.580394
11361 3408       61.0658                -0.582001
11377 3412.8     61.1567                -0.580524
11393 3417.6     61.2393                -0.58042
11409 3422.4     61.3185                -0.580733
11425 3427.2     61.4047                -0.582027
11441 3432       61.4866                -0.58271
11457 3436.8     61.574                -0.582483
11473 3441.6     61.65377                 -0.580146
11489 3446.4     61.7325                -0.579128
11505 3451.2     61.8209                -0.581912
11521 3456       61.8962                -0.579807
11537 3460.8     61.9887                -0.577377
11553 3465.6     62.0748                -0.57963
11569 3470.4     62.1499                -0.577384
11585 3475.2     62.237                -0.576444
11601 3480       62.3164                -0.577158
11617 3484.8     62.4096                -0.576561
11633 3489.6     62.4916                -0.574239
11649 3494.4     62.5637                -0.573823
11665 3499.2     62.6485                -0.575543
11681 3504       62.7292                -0.574229
11697 3508.8     62.8247                -0.572771
11713 3513.6     62.9013                -0.572011
11729 3518.4     62.97511                 -0.572074
11745 3523.2     63.0691                -0.574403
11761 3528       63.1546                -0.574389
11777 3532.8     63.241                -0.574663
11793 3537.6     63.3189                -0.572732
11809 3542.4     63.394                -0.572917
11825 3547.2     63.4775                -0.571655
11841 3552       63.5666                -0.573412
11857 3556.8     63.6575                -0.572947
11873 3561.6     63.7348                -0.573184
11889 3566.4     63.8098                -0.573643
11905 3571.2     63.89763                 -0.573325
11921 3576       63.9864                -0.573519
11937 3580.8     64.07453                 -0.573002
11953 3585.6     64.1453                -0.573564
11969 3590.4     64.2249                -0.573418
11985 3595.2     64.3076                -0.57754
12001 3600       64.3973                -0.576499
12017 3604.8     64.4884                -0.574691
12033 3609.6     64.5615                -0.576489
12049 3614.4     64.6409                -0.578568
12065 3619.2     64.7295                -0.579707
12081 3624       64.81493                 -0.578453
12097 3628.8     64.9025                -0.578874
12113 3633.6     64.974                -0.578454
12129 3638.4     65.055                -0.574444
12145 3643.2     65.1412                -0.574721
12161 3648       65.22975                 -0.57603
12177 3652.8     65.3207                -0.575212
12193 3657.6     65.3991                -0.574707
12209 3662.4     65.4742                -0.574963
12225 3667.2     65.5596                -0.574521
12241 3672       65.649                -0.57376
12257 3676.8     65.7317                -0.57468
12273 3681.6     65.8091                -0.572316
12289 3686.4     65.8897                -0.571665
12305 3691.2     65.9728                -0.573728
12321 3696       66.0628                -0.573288
12337 3700.8     66.1458                -0.572916
12353 3705.6     66.2237                -0.575786
12369 3710.4     66.3086                -0.574223
12385 3715.2     66.3922                -0.574089
12401 3720       66.4802                -0.574512
12417 3724.8     66.5635                -0.573751
12433 3729.6     66.63812                 -0.576962
12449 3734.4     66.7255                -0.575603
12465 3739.2     66.8021                -0.574672
12481 3744       66.89687                 -0.574369
12497 3748.8     66.9822                -0.575501
12513 3753.6     67.055                -0.576834
12529 3758.4     67.14039                 -0.576802
12545 3763.2     67.224                -0.576086
12561 3768       67.3144                -0.573907
12577 3772.8     67.3913                -0.574268
12593 3777.6     67.4671                -0.576852
12609 3782.4     67.5561                -0.576932
12625 3787.2     67.637                -0.573766
12641 3792       67.7288                -0.575332
12657 3796.8     67.8062                -0.576997
12673 3801.6     67.8812                -0.577299
12689 3806.4     67.9749                -0.577593
12705 3811.2     68.0599                -0.577724
12721 3816       68.1435                -0.574967
12737 3820.8     68.2201                -0.574554
12753 3825.6     68.2943                -0.577099
12769 3830.4     68.385                -0.574813
12785 3835.2     68.4731                -0.573045
12801 3840       68.5642                -0.572959
12817 3844.8     68.6398                -0.57196
12833 3849.6     68.7136                -0.572605
12849 3854.4     68.80232                 -0.572929
12865 3859.2     68.8922                -0.574566
12881 3864       68.982                -0.57443
12897 3868.8     69.0531                -0.572897
12913 3873.6     69.1312                -0.573037
12929 3878.4     69.21331                 -0.573057
12945 3883.2     69.3035                -0.570658
12961 3888       69.3947                -0.569414
12977 3892.8     69.4656                -0.575242
12993 3897.6     69.5476                -0.574738
13009 3902.4     69.6372                -0.576028
13025 3907.2     69.7206                -0.578126
13041 3912       69.8111                -0.576759
13057 3916.8     69.8886                -0.574225
13073 3921.6     69.9642                -0.576195
13089 3926.4     70.0463                -0.57587
13105 3931.2     70.1319                -0.57586
13121 3936       70.2283                -0.575747
13137 3940.8     70.3058                -0.578037
13153 3945.6     70.3809                -0.578894
13169 3950.4     70.4658                -0.576114
13185 3955.2     70.5518                -0.579297
13201 3960       70.6388                -0.579713
13217 3964.8     70.7147                -0.577411
13233 3969.6     70.7939                -0.580886
13249 3974.4     70.8756                -0.581395
13265 3979.2     70.9665                -0.58084
13281 3984       71.0528                -0.583296
13297 3988.8     71.13061                 -0.58377
13313 3993.6     71.2112                -0.583418
13329 3998.4     71.2982                -0.58331
13345 4003.2     71.38658                 -0.581937
13361 4008       71.4645                -0.58273
13377 4012.8     71.5418                -0.583053
13393 4017.6     71.628                -0.582207
13409 4022.4     71.7097                -0.58257
13425 4027.2     71.8036                -0.581836
13441 4032       71.8877                -0.581825
13457 4036.8     71.9597                -0.582957
13473 4041.6     72.0465                -0.579171
13489 4046.4     72.1276                -0.578725
13505 4051.2     72.22016                 -0.578433
13521 4056       72.2967                -0.578653
13537 4060.8     72.3725                -0.577856
13553 4065.6     72.46141                 -0.57629
13569 4070.4     72.5421                -0.577567
13585 4075.2     72.6347                -0.578665
13601 4080       72.7126                -0.578383
13617 4084.8     72.7874                -0.580523
13633 4089.6     72.8793                -0.57964
13649 4094.4     72.9627                -0.576992
13665 4099.2     73.0528                -0.577004
13681 4104       73.1321                -0.57406
13697 4108.8     73.204                -0.579364
13713 4113.6     73.292                -0.578189
13729 4118.4     73.37486                 -0.576478
13745 4123.2     73.4646                -0.578318
13761 4128       73.5468                -0.575386
13777 4132.8     73.6193                -0.57729
13793 4137.6     73.71007                 -0.576469
13809 4142.4     73.79554                 -0.576875
13825 4147.2     73.8865                -0.575987
13841 4152       73.9599                -0.574949
13857 4156.8     74.03554                 -0.573543
13873 4161.6     74.1214                -0.575416
13889 4166.4     74.2089                -0.577551
13905 4171.2     74.3002                -0.577244
13921 4176       74.3715                -0.577653
13937 4180.8     74.4496                -0.575399
13953 4185.6     74.5427                -0.577673
13969 4190.4     74.628                -0.576859
13985 4195.2     74.7145                -0.578832
14001 4200       74.7833                -0.57507
14017 4204.8     74.8656                -0.577396
14033 4209.6     74.9533                -0.576237
14049 4214.4     75.0419                -0.575132
14065 4219.2     75.1316                -0.57476
14081 4224       75.2074                -0.576381
14097 4228.8     75.28189                 -0.57313
14113 4233.6     75.3729                -0.57373
14129 4238.4     75.4583                -0.570867
14145 4243.2     75.5496                -0.573421
14161 4248       75.6231                -0.570205
14177 4252.8     75.699                -0.572756
14193 4257.6     75.78313                 -0.571786
14209 4262.4     75.8705                -0.568949
14225 4267.2     75.96007                 -0.571449
14241 4272       76.0339                -0.572939
14257 4276.8     76.1169                -0.574731
14273 4281.6     76.2039                -0.571912
14289 4286.4     76.2908                -0.569936
14305 4291.2     76.377                -0.571197
14321 4296       76.4518                -0.570658
14337 4300.8     76.5327                -0.573749
14353 4305.6     76.6143                -0.570163
14369 4310.4     76.7028                -0.570903
14385 4315.2     76.7919                -0.571056
14401 4320       76.8709                -0.571197
14417 4324.8     76.9489                -0.571424
14433 4329.6     77.0328                -0.569716
14449 4334.4     77.1221                -0.570368
14465 4339.2     77.2093                -0.570096
14481 4344       77.2844                -0.571448
14497 4348.8     77.3639                -0.574078
14513 4353.6     77.4456                -0.572253
14529 4358.4     77.5379                -0.574345
14545 4363.2     77.6192                -0.574637
14561 4368       77.696                -0.576611
14577 4372.8     77.7811                -0.576481
14593 4377.6     77.8629                -0.576167
14609 4382.4     77.9541                -0.574916
14625 4387.2     78.0316                -0.575239
14641 4392       78.1095                -0.573386
14657 4396.8     78.198                -0.572162
14673 4401.6     78.2772                -0.570196
14689 4406.4     78.3703                -0.571942
14705 4411.2     78.4542                -0.572738
14721 4416       78.5286                -0.573356
14737 4420.8     78.6161                -0.5755
14753 4425.6     78.6968                -0.574401
14769 4430.4     78.7869                -0.5721
14785 4435.2     78.8625                -0.574879
14801 4440       78.9386                -0.574823
14817 4444.8     79.0296                -0.57358
14833 4449.6     79.1098                -0.574165
14849 4454.4     79.2022                -0.575981
14865 4459.2     79.2781                -0.574849
14881 4464       79.3543                -0.574073
14897 4468.8     79.44884                 -0.574691
14913 4473.6     79.533                -0.574324
14929 4478.4     79.6189                -0.5758
14945 4483.2     79.6964                -0.575751
14961 4488       79.7713                -0.577234
14977 4492.8     79.8595                -0.574391
14993 4497.6     79.9433                -0.576677
15001 4500       79.9868                -0.574555