File: rawdata/ww_5
H2O_H2O
Furnace temperature 	Time	HeatFlow
/°C	/s	/mW
64.93	0	-0.16
65.13	2	-0.16
65.44	4	-0.16
65.88	6	-0.16
66.38	8	-0.17
66.87	11	-0.18
67.29	13	-0.19
67.60	15	-0.21
67.80	17	-0.23
67.90	19	-0.25
67.93	21	-0.28
67.92	23	-0.31
67.89	25	-0.33
67.87	27	-0.35
67.86	29	-0.38
67.86	32	-0.40
67.87	34	-0.42
67.87	36	-0.44
67.88	38	-0.46
67.87	40	-0.49
67.86	42	-0.51
67.85	44	-0.52
67.83	46	-0.54
67.80	48	-0.56
67.78	50	-0.58
67.76	53	-0.59
67.73	55	-0.60
67.71	57	-0.62
67.69	59	-0.63
67.66	61	-0.64
67.63	63	-0.65
67.61	65	-0.66
67.58	67	-0.67
67.55	69	-0.67
67.52	71	-0.68
67.49	74	-0.69
67.45	76	-0.69
67.42	78	-0.69
67.39	80	-0.70
67.36	82	-0.70
67.32	84	-0.70
67.29	86	-0.69
67.26	88	-0.69
67.22	90	-0.69
67.19	92	-0.69
67.15	95	-0.68
67.11	97	-0.68
67.08	99	-0.67
67.04	101	-0.67
67.01	103	-0.66
66.97	105	-0.66
66.93	107	-0.65
66.89	109	-0.64
66.86	111	-0.64
66.82	113	-0.63
66.78	116	-0.62
66.74	118	-0.62
66.70	120	-0.61
66.67	122	-0.60
66.63	124	-0.60
66.59	126	-0.59
66.55	128	-0.58
66.51	130	-0.58
66.47	132	-0.57
66.43	134	-0.56
66.39	137	-0.56
66.35	139	-0.55
66.31	141	-0.54
66.27	143	-0.54
66.23	145	-0.53
66.19	147	-0.53
66.15	149	-0.52
66.11	151	-0.51
66.07	153	-0.51
66.03	155	-0.50
65.99	158	-0.49
65.95	160	-0.49
65.91	162	-0.48
65.90	164	-0.47
65.91	166	-0.46
65.90	168	-0.46
65.88	170	-0.45
65.84	172	-0.44
65.80	174	-0.43
65.74	176	-0.42
65.69	179	-0.41
65.65	181	-0.40
65.61	183	-0.39
65.57	185	-0.38
65.54	187	-0.38
65.51	189	-0.37
65.47	191	-0.35
65.43	193	-0.35
65.39	195	-0.34
65.35	197	-0.33
65.31	200	-0.32
65.26	202	-0.31
65.22	204	-0.30
65.18	206	-0.29
65.14	208	-0.28
65.10	210	-0.27
65.06	212	-0.26
65.02	214	-0.24
64.98	216	-0.23
64.93	218	-0.22
64.89	221	-0.21
64.85	223	-0.21
64.81	225	-0.19
64.76	227	-0.18
64.72	229	-0.17
64.68	231	-0.16
64.64	233	-0.15
64.59	235	-0.14
64.55	237	-0.13
64.51	239	-0.12
64.47	242	-0.12
64.42	244	-0.11
64.38	246	-0.10
64.34	248	-0.09
64.29	250	-0.09
64.25	252	-0.08
64.21	254	-0.07
64.16	256	-0.06
64.12	258	-0.06
64.08	260	-0.05
64.03	263	-0.04
63.99	265	-0.03
63.95	267	-0.02
63.90	269	-0.01
63.86	271	-0.00
63.81	273	0.00
63.77	275	0.01
63.73	277	0.01
63.68	279	0.02
63.64	281	0.03
63.60	284	0.03
63.55	286	0.04
63.51	288	0.05
63.47	290	0.05
63.42	292	0.06
63.38	294	0.06
63.34	296	0.07
63.29	298	0.07
63.25	300	0.08
63.20	302	0.08
63.16	305	0.09
63.12	307	0.10
63.07	309	0.10
63.03	311	0.10
62.99	313	0.11
62.94	315	0.12
62.90	317	0.12
62.86	319	0.12
62.81	321	0.13
62.77	323	0.13
62.72	326	0.14
62.68	328	0.14
62.64	330	0.15
62.59	332	0.15
62.55	334	0.15
62.51	336	0.16
62.46	338	0.16
62.42	340	0.17
62.38	342	0.17
62.33	344	0.17
62.29	347	0.18
62.24	349	0.18
62.20	351	0.18
62.16	353	0.19
62.11	355	0.19
62.07	357	0.19
62.03	359	0.19
61.98	361	0.20
61.94	363	0.20
61.90	365	0.21
61.85	368	0.21
61.81	370	0.21
61.77	372	0.21
61.72	374	0.22
61.68	376	0.22
61.64	378	0.22
61.59	380	0.22
61.55	382	0.22
61.50	384	0.23
61.46	386	0.23
61.42	389	0.23
61.38	391	0.24
61.33	393	0.24
61.29	395	0.24
61.25	397	0.24
61.20	399	0.24
61.16	401	0.24
61.12	403	0.25
61.07	405	0.25
61.03	407	0.25
60.99	410	0.25
60.94	412	0.25
60.90	414	0.26
60.86	416	0.26
60.81	418	0.26
60.77	420	0.26
60.73	422	0.26
60.68	424	0.26
60.64	426	0.26
60.60	428	0.26
60.55	431	0.27
60.51	433	0.27
60.47	435	0.27
60.42	437	0.27
60.38	439	0.27
60.34	441	0.28
60.29	443	0.28
60.25	445	0.28
60.21	447	0.27
60.16	449	0.28
60.12	452	0.28
60.08	454	0.28
60.03	456	0.28
59.99	458	0.28
59.95	460	0.29
59.91	462	0.29
59.86	464	0.29
59.82	466	0.29
59.78	468	0.29
59.73	470	0.29
59.69	473	0.29
59.65	475	0.30
59.60	477	0.30
59.56	479	0.30
59.52	481	0.30
59.48	483	0.30
59.43	485	0.30
59.39	487	0.30
59.35	489	0.30
59.30	491	0.30
59.26	494	0.30
59.22	496	0.30
59.17	498	0.30
59.13	500	0.30
59.09	502	0.30
59.05	504	0.30
59.00	506	0.30
58.96	508	0.30
58.92	510	0.31
58.87	512	0.31
58.83	515	0.31
58.79	517	0.31
58.75	519	0.31
58.70	521	0.31
58.66	523	0.31
58.62	525	0.31
58.57	527	0.31
58.53	529	0.31
58.49	531	0.31
58.45	533	0.31
58.40	536	0.31
58.36	538	0.31
58.32	540	0.31
58.27	542	0.31
58.23	544	0.31
58.19	546	0.31
58.14	548	0.31
58.10	550	0.31
58.06	552	0.31
58.02	554	0.31
57.97	557	0.31
57.93	559	0.31
57.89	561	0.31
57.84	563	0.31
57.80	565	0.31
57.76	567	0.31
57.72	569	0.31
57.67	571	0.31
57.63	573	0.31
57.59	575	0.31
57.55	578	0.31
57.50	580	0.31
57.46	582	0.31
57.42	584	0.31
57.37	586	0.31
57.33	588	0.31
57.29	590	0.32
57.25	592	0.32
57.20	594	0.32
57.16	596	0.32
57.12	599	0.32
57.08	601	0.31
57.03	603	0.31
56.99	605	0.31
56.95	607	0.31
56.90	609	0.31
56.86	611	0.31
56.82	613	0.31
56.78	615	0.31
56.73	617	0.31
56.69	620	0.31
56.65	622	0.31
56.60	624	0.32
56.56	626	0.32
56.52	628	0.32
56.48	630	0.32
56.43	632	0.32
56.39	634	0.32
56.35	636	0.32
56.31	638	0.31
56.26	641	0.31
56.22	643	0.31
56.18	645	0.31
56.14	647	0.31
56.09	649	0.31
56.05	651	0.32
56.01	653	0.32
55.97	655	0.32
55.92	657	0.32
55.88	659	0.32
55.84	662	0.32
55.79	664	0.32
55.75	666	0.32
55.71	668	0.32
55.67	670	0.32
55.62	672	0.31
55.58	674	0.31
55.54	676	0.31
55.50	678	0.31
55.45	680	0.31
55.41	683	0.31
55.37	685	0.31
55.33	687	0.31
55.28	689	0.31
55.24	691	0.31
55.20	693	0.31
55.15	695	0.31
55.11	697	0.31
55.07	699	0.31
55.03	701	0.31
54.98	704	0.31
54.94	706	0.31
54.90	708	0.31
54.86	710	0.31
54.81	712	0.31
54.77	714	0.31
54.73	716	0.31
54.69	718	0.31
54.64	720	0.31
54.60	722	0.31
54.56	725	0.31
54.52	727	0.31
54.47	729	0.31
54.43	731	0.31
54.39	733	0.31
54.34	735	0.31
54.30	737	0.31
54.26	739	0.31
54.22	741	0.31
54.18	743	0.31
54.13	746	0.30
54.09	748	0.30
54.05	750	0.30
54.01	752	0.31
53.96	754	0.31
53.92	756	0.31
53.88	758	0.31
53.83	760	0.31
53.79	762	0.31
53.75	764	0.31
53.71	767	0.31
53.66	769	0.31
53.62	771	0.31
53.58	773	0.31
53.54	775	0.31
53.49	777	0.31
53.45	779	0.31
53.41	781	0.30
53.37	783	0.30
53.32	785	0.30
53.28	788	0.30
53.24	790	0.30
53.20	792	0.30
53.15	794	0.30
53.11	796	0.30
53.07	798	0.30
53.03	800	0.30
52.98	802	0.30
52.94	804	0.30
52.90	806	0.30
52.86	809	0.30
52.81	811	0.30
52.77	813	0.30
52.73	815	0.30
52.69	817	0.30
52.64	819	0.30
52.60	821	0.30
52.56	823	0.30
52.52	825	0.30
52.47	827	0.30
52.43	830	0.30
52.39	832	0.30
52.35	834	0.30
52.30	836	0.30
52.26	838	0.29
52.22	840	0.29
52.17	842	0.29
52.13	844	0.29
52.09	846	0.29
52.05	848	0.30
52.00	851	0.29
51.96	853	0.29
51.92	855	0.29
51.88	857	0.29
51.83	859	0.29
51.79	861	0.29
51.75	863	0.29
51.71	865	0.29
51.66	867	0.29
51.62	869	0.29
51.58	872	0.29
51.54	874	0.29
51.49	876	0.30
51.45	878	0.30
51.41	880	0.30
51.37	882	0.29
51.32	884	0.29
51.28	886	0.29
51.24	888	0.29
51.20	890	0.29
51.15	893	0.29
51.11	895	0.29
51.07	897	0.30
51.03	899	0.29
50.98	901	0.29
50.94	903	0.29
50.90	905	0.29
50.86	907	0.29
50.81	909	0.29
50.77	911	0.29
50.73	914	0.29
50.69	916	0.29
50.64	918	0.29
50.60	920	0.29
50.56	922	0.29
50.52	924	0.29
50.47	926	0.29
50.43	928	0.29
50.39	930	0.29
50.35	932	0.29
50.30	935	0.29
50.26	937	0.29
50.22	939	0.29
50.18	941	0.29
50.13	943	0.29
50.09	945	0.29
50.05	947	0.29
50.01	949	0.29
49.96	951	0.29
49.92	953	0.29
49.88	956	0.29
49.84	958	0.28
49.79	960	0.28
49.75	962	0.28
49.71	964	0.29
49.67	966	0.29
49.62	968	0.29
49.58	970	0.28
49.54	972	0.28
49.50	974	0.28
49.45	977	0.28
49.41	979	0.28
49.37	981	0.28
49.33	983	0.28
49.28	985	0.28
49.24	987	0.28
49.20	989	0.28
49.16	991	0.28
49.11	993	0.28
49.07	995	0.28
49.03	998	0.28
48.98	1000	0.28
48.94	1002	0.28
48.90	1004	0.28
48.86	1006	0.28
48.82	1008	0.28
48.77	1010	0.28
48.73	1012	0.28
48.69	1014	0.28
48.64	1016	0.28
48.60	1019	0.28
48.56	1021	0.28
48.52	1023	0.28
48.47	1025	0.28
48.43	1027	0.28
48.39	1029	0.28
48.35	1031	0.28
48.30	1033	0.28
48.26	1035	0.28
48.22	1037	0.28
48.18	1040	0.28
48.13	1042	0.27
48.09	1044	0.27
48.05	1046	0.27
48.01	1048	0.27
47.96	1050	0.27
47.92	1052	0.27
47.88	1054	0.27
47.84	1056	0.27
47.79	1058	0.27
47.75	1061	0.27
47.71	1063	0.27
47.67	1065	0.27
47.62	1067	0.27
47.58	1069	0.27
47.54	1071	0.27
47.50	1073	0.27
47.45	1075	0.27
47.41	1077	0.27
47.37	1079	0.27
47.33	1082	0.27
47.28	1084	0.27
47.24	1086	0.27
47.20	1088	0.27
47.16	1090	0.27
47.11	1092	0.27
47.07	1094	0.27
47.03	1096	0.27
46.99	1098	0.27
46.94	1100	0.27
46.90	1103	0.27
46.86	1105	0.27
46.82	1107	0.27
46.77	1109	0.27
46.73	1111	0.27
46.69	1113	0.27
46.65	1115	0.27
46.60	1117	0.27
46.56	1119	0.27
46.52	1121	0.27
46.48	1124	0.27
46.43	1126	0.27
46.39	1128	0.27
46.35	1130	0.27
46.31	1132	0.27
46.26	1134	0.27
46.22	1136	0.27
46.18	1138	0.27
46.14	1140	0.26
46.09	1142	0.27
46.05	1145	0.27
46.01	1147	0.27
45.97	1149	0.26
45.92	1151	0.26
45.88	1153	0.26
45.84	1155	0.27
45.80	1157	0.27
45.75	1159	0.27
45.71	1161	0.27
45.67	1163	0.26
45.63	1166	0.26
45.58	1168	0.26
45.54	1170	0.26
45.50	1172	0.26
45.46	1174	0.26
45.41	1176	0.26
45.37	1178	0.27
45.33	1180	0.27
45.29	1182	0.26
45.24	1184	0.26
45.20	1187	0.26
45.16	1189	0.26
45.12	1191	0.26
45.07	1193	0.26
45.03	1195	0.26
44.99	1197	0.26
44.95	1199	0.26
44.90	1201	0.26
44.86	1203	0.26
44.82	1205	0.26
44.78	1208	0.26
44.73	1210	0.26
44.69	1212	0.26
44.65	1214	0.26
44.61	1216	0.26
44.56	1218	0.26
44.52	1220	0.25
44.48	1222	0.26
44.44	1224	0.25
44.39	1226	0.25
44.35	1229	0.26
44.31	1231	0.26
44.27	1233	0.26
44.22	1235	0.26
44.18	1237	0.25
44.14	1239	0.25
44.10	1241	0.25
44.05	1243	0.25
44.01	1245	0.26
43.97	1247	0.26
43.92	1250	0.26
43.88	1252	0.25
43.84	1254	0.25
43.80	1256	0.25
43.76	1258	0.25
43.71	1260	0.25
43.67	1262	0.25
43.63	1264	0.25
43.59	1266	0.25
43.54	1268	0.26
43.50	1271	0.25
43.46	1273	0.25
43.42	1275	0.25
43.37	1277	0.25
43.33	1279	0.25
43.29	1281	0.25
43.25	1283	0.25
43.20	1285	0.25
43.16	1287	0.25
43.12	1289	0.25
43.08	1292	0.25
43.03	1294	0.25
42.99	1296	0.25
42.95	1298	0.25
42.91	1300	0.25
42.86	1302	0.25
42.82	1304	0.25
42.78	1306	0.25
42.73	1308	0.25
42.69	1310	0.25
42.65	1313	0.25
42.61	1315	0.25
42.57	1317	0.25
42.52	1319	0.25
42.48	1321	0.25
42.44	1323	0.25
42.40	1325	0.25
42.35	1327	0.25
42.31	1329	0.25
42.27	1331	0.25
42.23	1334	0.25
42.18	1336	0.24
42.14	1338	0.24
42.10	1340	0.24
42.06	1342	0.24
42.01	1344	0.24
41.97	1346	0.24
41.93	1348	0.24
41.89	1350	0.24
41.84	1352	0.24
41.80	1355	0.24
41.76	1357	0.24
41.72	1359	0.24
41.67	1361	0.24
41.63	1363	0.24
41.59	1365	0.24
41.55	1367	0.24
41.50	1369	0.24
41.46	1371	0.24
41.42	1373	0.24
41.38	1376	0.24
41.33	1378	0.24
41.29	1380	0.24
41.25	1382	0.24
41.21	1384	0.24
41.16	1386	0.24
41.12	1388	0.24
41.08	1390	0.23
41.03	1392	0.23
40.99	1394	0.24
40.95	1397	0.24
40.91	1399	0.24
40.87	1401	0.24
40.82	1403	0.23
40.78	1405	0.23
40.74	1407	0.23
40.70	1409	0.23
40.65	1411	0.23
40.61	1413	0.23
40.57	1415	0.23
40.52	1418	0.23
40.48	1420	0.23
40.44	1422	0.23
40.40	1424	0.23
40.36	1426	0.23
40.31	1428	0.23
40.27	1430	0.23
40.23	1432	0.23
40.19	1434	0.23
40.14	1436	0.23
40.10	1439	0.23
40.06	1441	0.23
40.02	1443	0.23
39.97	1445	0.23
39.93	1447	0.23
39.89	1449	0.23
39.85	1451	0.23
39.80	1453	0.23
39.76	1455	0.23
39.72	1457	0.23
39.68	1460	0.23
39.63	1462	0.23
39.59	1464	0.23
39.55	1466	0.23
39.51	1468	0.23
39.46	1470	0.23
39.42	1472	0.23
39.38	1474	0.23
39.34	1476	0.23
39.29	1478	0.23
39.25	1481	0.23
39.21	1483	0.23
39.17	1485	0.23
39.12	1487	0.23
39.08	1489	0.23
39.04	1491	0.23
39.00	1493	0.23
38.95	1495	0.23
38.91	1497	0.23
38.87	1499	0.23
38.83	1502	0.23
38.78	1504	0.23
38.74	1506	0.23
38.70	1508	0.23
38.66	1510	0.23
38.61	1512	0.23
38.57	1514	0.23
38.53	1516	0.23
38.49	1518	0.23
38.44	1520	0.23
38.40	1523	0.23
38.36	1525	0.23
38.31	1527	0.23
38.27	1529	0.22
38.23	1531	0.22
38.19	1533	0.22
38.14	1535	0.22
38.10	1537	0.22
38.06	1539	0.22
38.02	1541	0.22
37.97	1544	0.22
37.93	1546	0.22
37.89	1548	0.22
37.84	1550	0.22
37.80	1552	0.22
37.76	1554	0.22
37.72	1556	0.22
37.67	1558	0.22
37.63	1560	0.22
37.59	1562	0.22
37.55	1565	0.22
37.50	1567	0.22
37.46	1569	0.22
37.42	1571	0.22
37.38	1573	0.22
37.33	1575	0.21
37.29	1577	0.22
37.25	1579	0.22
37.21	1581	0.22
37.16	1583	0.22
37.12	1586	0.22
37.08	1588	0.22
37.04	1590	0.22
36.99	1592	0.22
36.95	1594	0.22
36.91	1596	0.21
36.87	1598	0.21
36.82	1600	0.21
36.78	1602	0.21
36.74	1604	0.21
36.70	1607	0.21
36.65	1609	0.21
36.61	1611	0.21
36.57	1613	0.22
36.53	1615	0.22
36.48	1617	0.21
36.44	1619	0.21
36.40	1621	0.21
36.36	1623	0.21
36.31	1625	0.21
36.27	1628	0.21
36.23	1630	0.21
36.19	1632	0.21
36.14	1634	0.21
36.10	1636	0.21
36.06	1638	0.21
36.02	1640	0.21
35.97	1642	0.21
35.93	1644	0.21
35.89	1646	0.21
35.85	1649	0.21
35.80	1651	0.21
35.76	1653	0.21
35.72	1655	0.21
35.68	1657	0.21
35.63	1659	0.21
35.59	1661	0.21
35.55	1663	0.21
35.51	1665	0.21
35.47	1667	0.21
35.42	1670	0.21
35.38	1672	0.21
35.34	1674	0.21
35.30	1676	0.21
35.25	1678	0.20
35.21	1680	0.21
35.17	1682	0.21
35.13	1684	0.21
35.08	1686	0.20
35.04	1688	0.20
35.00	1691	0.20
34.95	1693	0.20
34.91	1695	0.20
34.87	1697	0.20
34.83	1699	0.20
34.78	1701	0.20
34.74	1703	0.20
34.70	1705	0.20
34.66	1707	0.21
34.62	1709	0.20
34.57	1712	0.20
34.53	1714	0.20
34.49	1716	0.20
34.45	1718	0.20
34.40	1720	0.20
34.36	1722	0.20
34.32	1724	0.20
34.28	1726	0.20
34.23	1728	0.20
34.19	1730	0.20
34.15	1733	0.20
34.11	1735	0.20
34.06	1737	0.20
34.02	1739	0.20
33.98	1741	0.20
33.94	1743	0.20
33.89	1745	0.20
33.85	1747	0.20
33.81	1749	0.20
33.77	1751	0.20
33.72	1754	0.20
33.68	1756	0.20
33.64	1758	0.20
33.60	1760	0.20
33.55	1762	0.20
33.51	1764	0.20
33.47	1766	0.20
33.43	1768	0.20
33.38	1770	0.20
33.34	1772	0.20
33.30	1775	0.20
33.26	1777	0.20
33.21	1779	0.20
33.17	1781	0.20
33.13	1783	0.20
33.09	1785	0.20
33.04	1787	0.20
33.00	1789	0.19
32.96	1791	0.20
32.92	1793	0.20
32.87	1796	0.20
32.83	1798	0.20
32.79	1800	0.20
32.75	1802	0.20
32.71	1804	0.20
32.66	1806	0.20
32.62	1808	0.19
32.58	1810	0.19
32.53	1812	0.19
32.49	1814	0.19
32.45	1817	0.19
32.41	1819	0.19
32.37	1821	0.19
32.32	1823	0.19
32.28	1825	0.19
32.24	1827	0.19
32.20	1829	0.19
32.15	1831	0.19
32.11	1833	0.19
32.07	1835	0.19
32.03	1838	0.19
31.98	1840	0.19
31.94	1842	0.19
31.90	1844	0.19
31.86	1846	0.19
31.81	1848	0.19
31.77	1850	0.19
31.73	1852	0.19
31.69	1854	0.19
31.64	1856	0.19
31.60	1859	0.19
31.56	1861	0.19
31.52	1863	0.19
31.47	1865	0.19
31.43	1867	0.19
31.39	1869	0.19
31.35	1871	0.19
31.30	1873	0.19
31.26	1875	0.18
31.22	1877	0.18
31.18	1880	0.19
31.13	1882	0.19
31.09	1884	0.19
31.05	1886	0.18
31.01	1888	0.19
30.97	1890	0.19
30.92	1892	0.19
30.88	1894	0.19
30.84	1896	0.18
30.79	1898	0.18
30.75	1901	0.18
30.71	1903	0.18
30.67	1905	0.18
30.62	1907	0.18
30.58	1909	0.18
30.54	1911	0.18
30.50	1913	0.18
30.45	1915	0.18
30.41	1917	0.19
30.37	1919	0.18
30.33	1922	0.18
30.28	1924	0.18
30.24	1926	0.18
30.20	1928	0.18
30.16	1930	0.18
30.12	1932	0.18
30.07	1934	0.18
30.03	1936	0.18
29.99	1938	0.18
29.95	1940	0.18
29.90	1943	0.18
29.86	1945	0.18
29.82	1947	0.18
29.77	1949	0.18
29.73	1951	0.18
29.69	1953	0.18
29.65	1955	0.18
29.61	1957	0.18
29.56	1959	0.18
29.52	1961	0.18
29.48	1964	0.18
29.44	1966	0.18
29.39	1968	0.18
29.35	1970	0.18
29.31	1972	0.18
29.27	1974	0.18
29.22	1976	0.18
29.18	1978	0.18
29.14	1980	0.18
29.10	1982	0.18
29.05	1985	0.18
29.01	1987	0.18
28.97	1989	0.18
28.93	1991	0.18
28.88	1993	0.18
28.84	1995	0.18
28.80	1997	0.17
28.76	1999	0.17
28.71	2001	0.17
28.67	2003	0.17
28.63	2006	0.18
28.59	2008	0.18
28.54	2010	0.17
28.50	2012	0.17
28.46	2014	0.18
28.42	2016	0.18
28.37	2018	0.18
28.33	2020	0.18
28.29	2022	0.18
28.25	2024	0.17
28.20	2027	0.17
28.16	2029	0.17
28.12	2031	0.17
28.08	2033	0.17
28.03	2035	0.17
27.99	2037	0.17
27.95	2039	0.17
27.91	2041	0.17
27.87	2043	0.17
27.82	2045	0.17
27.78	2048	0.17
27.74	2050	0.17
27.70	2052	0.17
27.65	2054	0.17
27.61	2056	0.17
27.57	2058	0.17
27.52	2060	0.17
27.48	2062	0.17
27.44	2064	0.17
27.40	2066	0.17
27.36	2069	0.17
27.31	2071	0.17
27.27	2073	0.17
27.23	2075	0.17
27.19	2077	0.17
27.14	2079	0.17
27.10	2081	0.17
27.06	2083	0.17
27.02	2085	0.17
26.97	2087	0.17
26.93	2090	0.17
26.89	2092	0.17
26.85	2094	0.17
26.80	2096	0.17
26.76	2098	0.17
26.72	2100	0.17
26.68	2102	0.16
26.63	2104	0.16
26.59	2106	0.16
26.55	2108	0.16
26.51	2111	0.17
26.46	2113	0.16
26.42	2115	0.16
26.38	2117	0.16
26.34	2119	0.16
26.29	2121	0.16
26.25	2123	0.17
26.21	2125	0.17
26.17	2127	0.16
26.12	2129	0.16
26.08	2132	0.16
26.04	2134	0.16
26.00	2136	0.16
25.95	2138	0.16
25.91	2140	0.16
25.87	2142	0.16
25.83	2144	0.16
25.78	2146	0.16
25.74	2148	0.16
25.70	2150	0.16
25.66	2153	0.16
25.61	2155	0.16
25.57	2157	0.16
25.53	2159	0.16
25.49	2161	0.16
25.44	2163	0.16
25.40	2165	0.16
25.36	2167	0.16
25.32	2169	0.16
25.28	2171	0.16
25.23	2174	0.16
25.19	2176	0.16
25.15	2178	0.16
25.11	2180	0.16
25.06	2182	0.16
25.02	2184	0.16
24.98	2186	0.16
24.94	2188	0.16
24.89	2190	0.16
24.85	2192	0.15
24.81	2195	0.15
24.76	2197	0.16
24.72	2199	0.16
24.68	2201	0.15
24.64	2203	0.15
24.60	2205	0.16
24.55	2207	0.16
24.51	2209	0.16
24.47	2211	0.15
24.43	2213	0.15
24.38	2216	0.15
24.34	2218	0.15
24.30	2220	0.15
24.26	2222	0.15
24.21	2224	0.15
24.17	2226	0.15
24.13	2228	0.15
24.09	2230	0.15
24.04	2232	0.15
24.00	2234	0.15
23.96	2237	0.15
23.92	2239	0.15
23.88	2241	0.15
23.83	2243	0.15
23.79	2245	0.15
23.75	2247	0.15
23.71	2249	0.15
23.66	2251	0.15
23.62	2253	0.15
23.58	2255	0.15
23.53	2258	0.15
23.49	2260	0.15
23.45	2262	0.15
23.41	2264	0.15
23.37	2266	0.15
23.32	2268	0.15
23.28	2270	0.15
23.24	2272	0.15
23.20	2274	0.15
23.15	2276	0.15
23.11	2279	0.15
23.07	2281	0.15
23.03	2283	0.15
22.98	2285	0.14
22.94	2287	0.14
22.90	2289	0.14
22.86	2291	0.15
22.81	2293	0.15
22.77	2295	0.15
22.73	2297	0.14
22.69	2300	0.14
22.65	2302	0.14
22.60	2304	0.14
22.56	2306	0.14
22.52	2308	0.14
22.48	2310	0.14
22.43	2312	0.14
22.39	2314	0.14
22.35	2316	0.14
22.31	2318	0.14
22.26	2321	0.15
22.22	2323	0.14
22.18	2325	0.14
22.14	2327	0.14
22.09	2329	0.14
22.05	2331	0.14
22.01	2333	0.14
21.97	2335	0.14
21.92	2337	0.14
21.88	2339	0.14
21.84	2342	0.14
21.80	2344	0.14
21.75	2346	0.14
21.71	2348	0.14
21.67	2350	0.14
21.63	2352	0.14
21.58	2354	0.14
21.54	2356	0.14
21.50	2358	0.14
21.46	2360	0.14
21.42	2363	0.14
21.37	2365	0.14
21.33	2367	0.14
21.29	2369	0.14
21.25	2371	0.14
21.20	2373	0.14
21.16	2375	0.14
21.12	2377	0.14
21.08	2379	0.14
21.03	2381	0.14
20.99	2384	0.14
20.95	2386	0.14
20.91	2388	0.14
20.86	2390	0.14
20.82	2392	0.14
20.78	2394	0.14
20.74	2396	0.14
20.70	2398	0.14
20.65	2400	0.14
20.61	2402	0.14
20.57	2405	0.14
20.53	2407	0.14
20.48	2409	0.14
20.44	2411	0.14
20.40	2413	0.14
20.36	2415	0.14
20.31	2417	0.13
20.27	2419	0.13
20.23	2421	0.13
20.19	2423	0.13
20.14	2426	0.13
20.10	2428	0.13
20.06	2430	0.14
20.02	2432	0.14
19.97	2434	0.14
19.93	2436	0.14
19.89	2438	0.13
19.85	2440	0.13
19.80	2442	0.13
19.76	2444	0.13
19.72	2447	0.13
19.68	2449	0.13
19.63	2451	0.13
19.59	2453	0.13
19.55	2455	0.13
19.51	2457	0.13
19.46	2459	0.13
19.42	2461	0.13
19.38	2463	0.13
19.34	2465	0.13
19.30	2468	0.13
19.25	2470	0.13
19.21	2472	0.13
19.17	2474	0.13
19.13	2476	0.13
19.08	2478	0.13
19.04	2480	0.13
19.00	2482	0.13
18.96	2484	0.13
18.91	2486	0.13
18.87	2489	0.13
18.83	2491	0.13
18.79	2493	0.13
18.74	2495	0.13
18.70	2497	0.13
18.66	2499	0.13
18.62	2501	0.13
18.57	2503	0.13
18.53	2505	0.13
18.49	2507	0.13
18.45	2510	0.13
18.41	2512	0.13
18.36	2514	0.13
18.32	2516	0.13
18.28	2518	0.13
18.24	2520	0.13
18.19	2522	0.13
18.15	2524	0.13
18.11	2526	0.13
18.07	2528	0.13
18.02	2531	0.13
17.98	2533	0.13
17.94	2535	0.13
17.90	2537	0.13
17.85	2539	0.12
17.81	2541	0.13
17.77	2543	0.12
17.73	2545	0.12
17.68	2547	0.12
17.64	2549	0.12
17.60	2552	0.13
17.56	2554	0.13
17.52	2556	0.12
17.47	2558	0.12
17.43	2560	0.12
17.39	2562	0.13
17.35	2564	0.12
17.30	2566	0.12
17.26	2568	0.12
17.22	2570	0.12
17.18	2573	0.12
17.14	2575	0.12
17.09	2577	0.12
17.05	2579	0.12
17.01	2581	0.12
16.97	2583	0.12
16.92	2585	0.12
16.88	2587	0.12
16.84	2589	0.12
16.80	2591	0.12
16.75	2594	0.12
16.71	2596	0.12
16.67	2598	0.12
16.63	2600	0.12
16.58	2602	0.12
16.54	2604	0.12
16.50	2606	0.12
16.46	2608	0.12
16.42	2610	0.12
16.37	2612	0.12
16.33	2615	0.12
16.29	2617	0.12
16.25	2619	0.12
16.20	2621	0.12
16.16	2623	0.12
16.12	2625	0.12
16.08	2627	0.12
16.03	2629	0.12
15.99	2631	0.12
15.95	2633	0.12
15.91	2636	0.12
15.87	2638	0.12
15.82	2640	0.12
15.78	2642	0.12
15.74	2644	0.12
15.70	2646	0.12
15.65	2648	0.11
15.61	2650	0.12
15.57	2652	0.11
15.53	2654	0.11
15.49	2657	0.11
15.44	2659	0.11
15.40	2661	0.11
15.36	2663	0.11
15.32	2665	0.12
15.28	2667	0.12
15.23	2669	0.11
15.19	2671	0.11
15.15	2673	0.11
15.11	2675	0.11
15.06	2678	0.11
15.02	2680	0.11
14.98	2682	0.11
14.94	2684	0.11
14.89	2686	0.11
14.85	2688	0.11
14.81	2690	0.11
14.77	2692	0.11
14.73	2694	0.11
14.68	2696	0.11
14.64	2699	0.11
14.60	2701	0.11
14.56	2703	0.11
14.52	2705	0.11
14.47	2707	0.11
14.43	2709	0.11
14.39	2711	0.11
14.35	2713	0.11
14.30	2715	0.11
14.26	2717	0.11
14.22	2720	0.11
14.18	2722	0.11
14.13	2724	0.11
14.09	2726	0.11
14.05	2728	0.11
14.01	2730	0.11
13.97	2732	0.11
13.92	2734	0.11
13.88	2736	0.11
13.84	2738	0.11
13.80	2741	0.11
13.75	2743	0.11
13.71	2745	0.11
13.67	2747	0.11
13.63	2749	0.11
13.59	2751	0.11
13.54	2753	0.11
13.50	2755	0.11
13.46	2757	0.10
13.42	2759	0.11
13.38	2762	0.11
13.33	2764	0.11
13.29	2766	0.10
13.25	2768	0.10
13.21	2770	0.10
13.17	2772	0.10
13.12	2774	0.10
13.08	2776	0.10
13.04	2778	0.10
13.00	2780	0.10
12.95	2783	0.10
12.91	2785	0.10
12.87	2787	0.10
12.83	2789	0.10
12.79	2791	0.10
12.74	2793	0.10
12.70	2795	0.10
12.66	2797	0.10
12.62	2799	0.10
12.58	2801	0.10
12.53	2804	0.10
12.49	2806	0.10
12.45	2808	0.10
12.41	2810	0.10
12.37	2812	0.10
12.32	2814	0.10
12.28	2816	0.10
12.24	2818	0.10
12.20	2820	0.10
12.15	2822	0.10
12.11	2825	0.10
12.07	2827	0.10
12.03	2829	0.10
11.99	2831	0.10
11.95	2833	0.10
11.90	2835	0.10
11.86	2837	0.10
11.82	2839	0.10
11.78	2841	0.10
11.73	2843	0.10
11.69	2846	0.10
11.65	2848	0.10
11.61	2850	0.10
11.57	2852	0.10
11.53	2854	0.10
11.48	2856	0.10
11.44	2858	0.10
11.40	2860	0.10
11.36	2862	0.09
11.31	2864	0.09
11.27	2867	0.09
11.23	2869	0.09
11.19	2871	0.09
11.15	2873	0.09
11.11	2875	0.09
11.06	2877	0.09
11.02	2879	0.09
10.98	2881	0.09
10.94	2883	0.09
10.90	2885	0.09
10.85	2888	0.09
10.81	2890	0.09
10.77	2892	0.09
10.73	2894	0.09
10.69	2896	0.09
10.65	2898	0.10
10.60	2900	0.09
10.56	2902	0.09
10.52	2904	0.09
10.48	2906	0.09
10.44	2909	0.09
10.39	2911	0.09
10.35	2913	0.09
10.31	2915	0.09
10.27	2917	0.09
10.23	2919	0.10
10.19	2921	0.10
10.15	2923	0.10
10.10	2925	0.10
10.06	2927	0.10
10.02	2930	0.10
9.98	2932	0.10
9.94	2934	0.10
9.90	2936	0.10
9.85	2938	0.10
9.81	2940	0.10
9.77	2942	0.10
9.73	2944	0.10
9.69	2946	0.10
9.65	2948	0.10
9.60	2951	0.10
9.56	2953	0.10
9.52	2955	0.10
9.48	2957	0.10
9.44	2959	0.10
9.40	2961	0.10
9.36	2963	0.10
9.31	2965	0.10
9.27	2967	0.11
9.23	2969	0.11
9.19	2972	0.11
9.15	2974	0.11
9.11	2976	0.11
9.07	2978	0.11
9.03	2980	0.11
8.99	2982	0.11
8.94	2984	0.11
8.90	2986	0.11
8.86	2988	0.11
8.82	2990	0.11
8.78	2993	0.11
8.74	2995	0.11
8.70	2997	0.11
8.66	2999	0.11
8.64	3000	0.11