File: rawdata/ww_6
H2O_H2O
Furnace temperature 	Time	HeatFlow
/°C	/s	/mW
8.23	0	0.11
8.12	6	0.11
8.00	12	0.11
7.90	18	0.11
7.79	24	0.11
7.67	30	0.11
7.53	36	0.11
7.36	42	0.12
7.19	48	0.13
7.00	54	0.14
6.81	60	0.16
6.63	66	0.19
6.46	72	0.23
6.31	78	0.26
6.18	84	0.30
6.06	90	0.34
5.97	96	0.37
5.89	102	0.40
5.82	108	0.42
5.77	114	0.44
5.73	120	0.45
5.70	126	0.46
5.67	132	0.46
5.66	138	0.46
5.66	144	0.46
5.66	150	0.45
5.66	156	0.44
5.67	162	0.43
5.58	168	0.41
5.49	174	0.40
5.39	180	0.38
5.30	186	0.37
5.22	192	0.35
5.14	198	0.33
5.08	204	0.31
5.04	210	0.30
5.01	216	0.28
5.00	222	0.26
5.01	228	0.24
5.04	234	0.23
5.08	240	0.21
5.13	246	0.19
5.18	252	0.18
5.24	258	0.17
5.31	264	0.15
5.37	270	0.14
5.44	276	0.12
5.51	282	0.11
5.58	288	0.10
5.66	294	0.09
5.73	300	0.08
5.80	306	0.07
5.87	312	0.06
5.95	318	0.05
6.02	324	0.04
6.09	330	0.03
6.16	336	0.02
6.23	342	0.02
6.31	348	0.01
6.37	354	0.00
6.44	360	-0.00
6.51	366	-0.01
6.58	372	-0.01
6.65	378	-0.02
6.71	384	-0.02
6.78	390	-0.03
6.85	396	-0.03
6.91	402	-0.03
6.98	408	-0.04
7.04	414	-0.04
7.10	420	-0.05
7.17	426	-0.05
7.23	432	-0.05
7.29	438	-0.05
7.35	444	-0.06
7.41	450	-0.06
7.47	456	-0.06
7.53	462	-0.06
7.59	468	-0.06
7.65	474	-0.07
7.70	480	-0.07
7.76	486	-0.07
7.82	492	-0.07
7.88	498	-0.07
7.93	504	-0.07
7.99	510	-0.07
8.04	516	-0.07
8.10	522	-0.07
8.16	528	-0.07
8.21	534	-0.07
8.27	540	-0.07
8.32	546	-0.08
8.38	552	-0.08
8.43	558	-0.08
8.48	564	-0.08
8.54	570	-0.08
8.59	576	-0.08
8.65	582	-0.08
8.70	588	-0.08
8.75	594	-0.08
8.81	600	-0.08
8.86	606	-0.08
8.91	612	-0.08
8.96	618	-0.08
9.02	624	-0.08
9.07	630	-0.08
9.12	636	-0.08
9.17	642	-0.08
9.23	648	-0.08
9.28	654	-0.08
9.33	660	-0.08
9.39	666	-0.08
9.44	672	-0.08
9.49	678	-0.08
9.54	684	-0.08
9.60	690	-0.08
9.65	696	-0.08
9.70	702	-0.08
9.75	708	-0.08
9.80	714	-0.08
9.86	720	-0.08
9.91	726	-0.08
9.96	732	-0.08
10.01	738	-0.08
10.06	744	-0.08
10.12	750	-0.08
10.17	756	-0.08
10.22	762	-0.08
10.27	768	-0.08
10.32	774	-0.08
10.37	780	-0.08
10.42	786	-0.08
10.48	792	-0.08
10.53	798	-0.08
10.58	804	-0.08
10.63	810	-0.08
10.68	816	-0.08
10.73	822	-0.08
10.78	828	-0.08
10.83	834	-0.08
10.88	840	-0.08
10.94	846	-0.08
10.99	852	-0.08
11.04	858	-0.08
11.09	864	-0.08
11.14	870	-0.08
11.19	876	-0.08
11.24	882	-0.08
11.29	888	-0.08
11.34	894	-0.08
11.40	900	-0.08
11.45	906	-0.08
11.50	912	-0.08
11.55	918	-0.08
11.60	924	-0.08
11.65	930	-0.08
11.70	936	-0.08
11.75	942	-0.08
11.80	948	-0.08
11.85	954	-0.08
11.90	960	-0.08
11.96	966	-0.08
12.01	972	-0.08
12.06	978	-0.08
12.11	984	-0.08
12.16	990	-0.08
12.21	996	-0.08
12.26	1002	-0.08
12.31	1008	-0.08
12.36	1014	-0.08
12.41	1020	-0.08
12.46	1026	-0.08
12.51	1032	-0.08
12.56	1038	-0.08
12.62	1044	-0.08
12.67	1050	-0.08
12.72	1056	-0.08
12.77	1062	-0.08
12.82	1068	-0.08
12.87	1074	-0.08
12.92	1080	-0.08
12.97	1086	-0.08
13.02	1092	-0.08
13.07	1098	-0.08
13.12	1104	-0.08
13.17	1110	-0.08
13.22	1116	-0.08
13.27	1122	-0.08
13.33	1128	-0.08
13.38	1134	-0.08
13.43	1140	-0.08
13.48	1146	-0.08
13.53	1152	-0.08
13.58	1158	-0.08
13.63	1164	-0.08
13.68	1170	-0.08
13.73	1176	-0.08
13.78	1182	-0.08
13.83	1188	-0.08
13.88	1194	-0.08
13.93	1200	-0.08
13.98	1206	-0.08
14.03	1212	-0.08
14.09	1218	-0.08
14.14	1224	-0.08
14.19	1230	-0.08
14.24	1236	-0.08
14.29	1242	-0.08
14.34	1248	-0.08
14.39	1254	-0.08
14.44	1260	-0.08
14.49	1266	-0.08
14.54	1272	-0.08
14.59	1278	-0.08
14.64	1284	-0.08
14.69	1290	-0.08
14.75	1296	-0.08
14.80	1302	-0.08
14.85	1308	-0.08
14.90	1314	-0.08
14.95	1320	-0.08
15.00	1326	-0.08
15.05	1332	-0.08
15.10	1338	-0.08
15.15	1344	-0.08
15.20	1350	-0.08
15.25	1356	-0.08
15.30	1362	-0.08
15.35	1368	-0.08
15.40	1374	-0.08
15.45	1380	-0.08
15.51	1386	-0.08
15.56	1392	-0.08
15.61	1398	-0.08
15.66	1404	-0.09
15.71	1410	-0.08
15.76	1416	-0.08
15.81	1422	-0.09
15.86	1428	-0.09
15.91	1434	-0.09
15.96	1440	-0.09
16.01	1446	-0.09
16.06	1452	-0.09
16.11	1458	-0.09
16.16	1464	-0.09
16.21	1470	-0.09
16.27	1476	-0.09
16.32	1482	-0.09
16.37	1488	-0.09
16.42	1494	-0.09
16.47	1500	-0.09
16.52	1506	-0.09
16.57	1512	-0.09
16.62	1518	-0.09
16.67	1524	-0.09
16.72	1530	-0.09
16.77	1536	-0.09
16.82	1542	-0.09
16.87	1548	-0.09
16.92	1554	-0.09
16.97	1560	-0.09
17.03	1566	-0.09
17.08	1572	-0.09
17.13	1578	-0.09
17.18	1584	-0.09
17.23	1590	-0.09
17.28	1596	-0.09
17.33	1602	-0.09
17.38	1608	-0.09
17.43	1614	-0.09
17.48	1620	-0.09
17.53	1626	-0.09
17.58	1632	-0.09
17.63	1638	-0.09
17.68	1644	-0.09
17.73	1650	-0.09
17.79	1656	-0.09
17.84	1662	-0.09
17.89	1668	-0.09
17.94	1674	-0.09
17.99	1680	-0.09
18.04	1686	-0.09
18.09	1692	-0.09
18.14	1698	-0.09
18.19	1704	-0.09
18.24	1710	-0.09
18.29	1716	-0.09
18.34	1722	-0.09
18.39	1728	-0.09
18.44	1734	-0.09
18.49	1740	-0.09
18.55	1746	-0.09
18.60	1752	-0.09
18.65	1758	-0.09
18.70	1764	-0.09
18.75	1770	-0.09
18.80	1776	-0.09
18.85	1782	-0.09
18.90	1788	-0.09
18.95	1794	-0.09
19.00	1800	-0.09
19.05	1806	-0.09
19.10	1812	-0.09
19.15	1818	-0.09
19.20	1824	-0.09
19.25	1830	-0.09
19.30	1836	-0.09
19.35	1842	-0.09
19.41	1848	-0.09
19.46	1854	-0.09
19.51	1860	-0.09
19.56	1866	-0.09
19.61	1872	-0.09
19.66	1878	-0.09
19.71	1884	-0.10
19.76	1890	-0.10
19.81	1896	-0.10
19.86	1902	-0.09
19.91	1908	-0.10
19.96	1914	-0.10
20.01	1920	-0.09
20.06	1926	-0.10
20.11	1932	-0.10
20.16	1938	-0.10
20.22	1944	-0.10
20.27	1950	-0.10
20.32	1956	-0.10
20.37	1962	-0.10
20.42	1968	-0.10
20.47	1974	-0.10
20.52	1980	-0.10
20.57	1986	-0.10
20.62	1992	-0.10
20.67	1998	-0.10
20.72	2004	-0.10
20.77	2010	-0.10
20.82	2016	-0.10
20.87	2022	-0.10
20.92	2028	-0.10
20.98	2034	-0.10
21.03	2040	-0.10
21.08	2046	-0.10
21.13	2052	-0.10
21.18	2058	-0.10
21.23	2064	-0.10
21.28	2070	-0.10
21.33	2076	-0.10
21.38	2082	-0.10
21.43	2088	-0.10
21.48	2094	-0.10
21.53	2100	-0.10
21.58	2106	-0.10
21.63	2112	-0.10
21.68	2118	-0.10
21.74	2124	-0.10
21.79	2130	-0.10
21.84	2136	-0.10
21.89	2142	-0.10
21.94	2148	-0.10
21.99	2154	-0.10
22.04	2160	-0.10
22.09	2166	-0.10
22.14	2172	-0.10
22.19	2178	-0.10
22.24	2184	-0.10
22.29	2190	-0.10
22.34	2196	-0.10
22.39	2202	-0.10
22.44	2208	-0.10
22.49	2214	-0.10
22.54	2220	-0.10
22.60	2226	-0.10
22.65	2232	-0.10
22.70	2238	-0.11
22.75	2244	-0.10
22.80	2250	-0.10
22.85	2256	-0.10
22.90	2262	-0.10
22.95	2268	-0.10
23.00	2274	-0.11
23.05	2280	-0.11
23.10	2286	-0.11
23.15	2292	-0.11
23.20	2298	-0.11
23.25	2304	-0.11
23.30	2310	-0.11
23.36	2316	-0.11
23.41	2322	-0.11
23.46	2328	-0.11
23.51	2334	-0.11
23.56	2340	-0.11
23.61	2346	-0.11
23.66	2352	-0.11
23.71	2358	-0.11
23.76	2364	-0.11
23.81	2370	-0.11
23.86	2376	-0.11
23.91	2382	-0.11
23.96	2388	-0.11
24.01	2394	-0.11
24.06	2400	-0.11
24.11	2406	-0.11
24.16	2412	-0.11
24.22	2418	-0.11
24.27	2424	-0.11
24.32	2430	-0.11
24.37	2436	-0.11
24.42	2442	-0.11
24.47	2448	-0.11
24.52	2454	-0.11
24.57	2460	-0.11
24.62	2466	-0.11
24.67	2472	-0.11
24.72	2478	-0.11
24.77	2484	-0.11
24.82	2490	-0.11
24.87	2496	-0.11
24.92	2502	-0.11
24.97	2508	-0.11
25.03	2514	-0.11
25.08	2520	-0.11
25.13	2526	-0.11
25.18	2532	-0.11
25.23	2538	-0.11
25.28	2544	-0.11
25.33	2550	-0.11
25.38	2556	-0.11
25.43	2562	-0.11
25.48	2568	-0.11
25.53	2574	-0.11
25.58	2580	-0.11
25.63	2586	-0.11
25.68	2592	-0.12
25.73	2598	-0.12
25.78	2604	-0.12
25.83	2610	-0.12
25.89	2616	-0.12
25.94	2622	-0.11
25.99	2628	-0.12
26.04	2634	-0.12
26.09	2640	-0.11
26.14	2646	-0.12
26.19	2652	-0.12
26.24	2658	-0.12
26.29	2664	-0.12
26.34	2670	-0.12
26.39	2676	-0.12
26.44	2682	-0.12
26.49	2688	-0.12
26.54	2694	-0.12
26.59	2700	-0.12
26.65	2706	-0.12
26.70	2712	-0.12
26.75	2718	-0.12
26.80	2724	-0.12
26.85	2730	-0.12
26.90	2736	-0.12
26.95	2742	-0.12
27.00	2748	-0.12
27.05	2754	-0.12
27.10	2760	-0.12
27.15	2766	-0.12
27.20	2772	-0.12
27.25	2778	-0.12
27.30	2784	-0.12
27.35	2790	-0.12
27.40	2796	-0.12
27.46	2802	-0.12
27.51	2808	-0.12
27.56	2814	-0.12
27.61	2820	-0.12
27.66	2826	-0.12
27.71	2832	-0.12
27.76	2838	-0.12
27.81	2844	-0.12
27.86	2850	-0.12
27.91	2856	-0.12
27.96	2862	-0.12
28.01	2868	-0.12
28.06	2874	-0.12
28.11	2880	-0.12
28.16	2886	-0.12
28.21	2892	-0.12
28.27	2898	-0.12
28.32	2904	-0.12
28.37	2910	-0.12
28.42	2916	-0.12
28.47	2922	-0.12
28.52	2928	-0.12
28.57	2934	-0.12
28.62	2940	-0.12
28.67	2946	-0.12
28.72	2952	-0.12
28.77	2958	-0.12
28.82	2964	-0.12
28.87	2970	-0.13
28.92	2976	-0.13
28.97	2982	-0.12
29.02	2988	-0.12
29.08	2994	-0.13
29.13	3000	-0.13
29.18	3006	-0.13
29.23	3012	-0.13
29.28	3018	-0.13
29.33	3024	-0.13
29.38	3030	-0.13
29.43	3036	-0.13
29.48	3042	-0.13
29.53	3048	-0.13
29.58	3054	-0.13
29.63	3060	-0.13
29.68	3066	-0.13
29.73	3072	-0.13
29.78	3078	-0.13
29.83	3084	-0.13
29.88	3090	-0.13
29.94	3096	-0.13
29.99	3102	-0.13
30.04	3108	-0.13
30.09	3114	-0.13
30.14	3120	-0.13
30.19	3126	-0.13
30.24	3132	-0.13
30.29	3138	-0.13
30.34	3144	-0.13
30.39	3150	-0.13
30.44	3156	-0.13
30.49	3162	-0.13
30.54	3168	-0.13
30.59	3174	-0.13
30.64	3180	-0.13
30.69	3186	-0.13
30.75	3192	-0.13
30.80	3198	-0.13
30.85	3204	-0.13
30.90	3210	-0.13
30.95	3216	-0.13
31.00	3222	-0.13
31.05	3228	-0.13
31.10	3234	-0.13
31.15	3240	-0.13
31.20	3246	-0.13
31.25	3252	-0.13
31.30	3258	-0.13
31.35	3264	-0.13
31.40	3270	-0.13
31.45	3276	-0.13
31.50	3282	-0.13
31.56	3288	-0.13
31.61	3294	-0.13
31.66	3300	-0.13
31.71	3306	-0.13
31.76	3312	-0.13
31.81	3318	-0.13
31.86	3324	-0.13
31.91	3330	-0.13
31.96	3336	-0.13
32.01	3342	-0.13
32.06	3348	-0.13
32.11	3354	-0.14
32.16	3360	-0.14
32.21	3366	-0.14
32.26	3372	-0.13
32.31	3378	-0.14
32.37	3384	-0.14
32.42	3390	-0.13
32.47	3396	-0.13
32.52	3402	-0.14
32.57	3408	-0.14
32.62	3414	-0.14
32.67	3420	-0.14
32.72	3426	-0.14
32.77	3432	-0.14
32.82	3438	-0.14
32.87	3444	-0.14
32.92	3450	-0.14
32.97	3456	-0.14
33.02	3462	-0.14
33.07	3468	-0.14
33.12	3474	-0.14
33.18	3480	-0.14
33.23	3486	-0.14
33.28	3492	-0.14
33.33	3498	-0.14
33.38	3504	-0.14
33.43	3510	-0.14
33.48	3516	-0.14
33.53	3522	-0.14
33.58	3528	-0.14
33.63	3534	-0.14
33.68	3540	-0.14
33.73	3546	-0.14
33.78	3552	-0.14
33.83	3558	-0.14
33.88	3564	-0.14
33.93	3570	-0.14
33.98	3576	-0.14
34.04	3582	-0.14
34.09	3588	-0.14
34.14	3594	-0.14
34.19	3600	-0.14
34.24	3606	-0.14
34.29	3612	-0.14
34.34	3618	-0.14
34.39	3624	-0.14
34.44	3630	-0.14
34.49	3636	-0.14
34.54	3642	-0.14
34.59	3648	-0.14
34.64	3654	-0.14
34.69	3660	-0.14
34.74	3666	-0.14
34.79	3672	-0.14
34.85	3678	-0.14
34.90	3684	-0.14
34.95	3690	-0.14
35.00	3696	-0.14
35.05	3702	-0.14
35.10	3708	-0.14
35.15	3714	-0.14
35.20	3720	-0.14
35.25	3726	-0.14
35.30	3732	-0.14
35.35	3738	-0.14
35.40	3744	-0.14
35.45	3750	-0.14
35.50	3756	-0.14
35.55	3762	-0.14
35.60	3768	-0.14
35.65	3774	-0.14
35.71	3780	-0.14
35.76	3786	-0.14
35.81	3792	-0.14
35.86	3798	-0.15
35.91	3804	-0.15
35.96	3810	-0.14
36.01	3816	-0.14
36.06	3822	-0.14
36.11	3828	-0.15
36.16	3834	-0.15
36.21	3840	-0.15
36.26	3846	-0.15
36.31	3852	-0.15
36.36	3858	-0.15
36.41	3864	-0.15
36.46	3870	-0.15
36.52	3876	-0.15
36.57	3882	-0.15
36.62	3888	-0.15
36.67	3894	-0.15
36.72	3900	-0.15
36.77	3906	-0.15
36.82	3912	-0.15
36.87	3918	-0.15
36.92	3924	-0.15
36.97	3930	-0.15
37.02	3936	-0.15
37.07	3942	-0.15
37.12	3948	-0.15
37.17	3954	-0.15
37.22	3960	-0.15
37.27	3966	-0.15
37.32	3972	-0.15
37.38	3978	-0.15
37.43	3984	-0.15
37.48	3990	-0.15
37.53	3996	-0.15
37.58	4002	-0.15
37.63	4008	-0.15
37.68	4014	-0.15
37.73	4020	-0.15
37.78	4026	-0.15
37.83	4032	-0.15
37.88	4038	-0.15
37.93	4044	-0.15
37.98	4050	-0.15
38.03	4056	-0.15
38.08	4062	-0.15
38.14	4068	-0.15
38.19	4074	-0.15
38.24	4080	-0.15
38.29	4086	-0.15
38.34	4092	-0.15
38.39	4098	-0.15
38.44	4104	-0.15
38.49	4110	-0.15
38.54	4116	-0.15
38.59	4122	-0.15
38.64	4128	-0.15
38.69	4134	-0.15
38.74	4140	-0.15
38.79	4146	-0.15
38.84	4152	-0.15
38.89	4158	-0.15
38.94	4164	-0.15
39.00	4170	-0.15
39.05	4176	-0.15
39.10	4182	-0.15
39.15	4188	-0.15
39.20	4194	-0.15
39.25	4200	-0.15
39.30	4206	-0.15
39.35	4212	-0.15
39.40	4218	-0.15
39.45	4224	-0.15
39.50	4230	-0.15
39.55	4236	-0.15
39.60	4242	-0.15
39.65	4248	-0.15
39.70	4254	-0.15
39.75	4260	-0.15
39.80	4266	-0.15
39.85	4272	-0.15
39.91	4278	-0.15
39.96	4284	-0.15
40.01	4290	-0.15
40.06	4296	-0.15
40.11	4302	-0.15
40.16	4308	-0.15
40.21	4314	-0.15
40.26	4320	-0.16
40.31	4326	-0.16
40.36	4332	-0.16
40.41	4338	-0.15
40.46	4344	-0.15
40.51	4350	-0.16
40.56	4356	-0.16
40.61	4362	-0.16
40.67	4368	-0.15
40.72	4374	-0.16
40.77	4380	-0.16
40.82	4386	-0.15
40.87	4392	-0.16
40.92	4398	-0.16
40.97	4404	-0.16
41.02	4410	-0.16
41.07	4416	-0.16
41.12	4422	-0.16
41.17	4428	-0.16
41.22	4434	-0.16
41.27	4440	-0.16
41.32	4446	-0.16
41.37	4452	-0.16
41.42	4458	-0.16
41.47	4464	-0.16
41.53	4470	-0.16
41.58	4476	-0.16
41.63	4482	-0.16
41.68	4488	-0.16
41.73	4494	-0.16
41.78	4500	-0.16
41.83	4506	-0.16
41.88	4512	-0.16
41.93	4518	-0.16
41.98	4524	-0.16
42.03	4530	-0.16
42.08	4536	-0.16
42.13	4542	-0.16
42.18	4548	-0.16
42.23	4554	-0.16
42.28	4560	-0.16
42.34	4566	-0.16
42.39	4572	-0.16
42.44	4578	-0.16
42.49	4584	-0.16
42.54	4590	-0.16
42.59	4596	-0.16
42.64	4602	-0.16
42.69	4608	-0.16
42.74	4614	-0.16
42.79	4620	-0.16
42.84	4626	-0.16
42.89	4632	-0.16
42.94	4638	-0.16
42.99	4644	-0.16
43.04	4650	-0.16
43.09	4656	-0.16
43.14	4662	-0.16
43.20	4668	-0.16
43.25	4674	-0.16
43.30	4680	-0.16
43.35	4686	-0.16
43.40	4692	-0.16
43.45	4698	-0.16
43.50	4704	-0.16
43.55	4710	-0.16
43.60	4716	-0.16
43.65	4722	-0.16
43.70	4728	-0.16
43.75	4734	-0.16
43.80	4740	-0.16
43.85	4746	-0.16
43.90	4752	-0.16
43.95	4758	-0.16
44.01	4764	-0.16
44.06	4770	-0.16
44.11	4776	-0.16
44.16	4782	-0.16
44.21	4788	-0.16
44.26	4794	-0.16
44.31	4800	-0.16
44.36	4806	-0.16
44.41	4812	-0.16
44.46	4818	-0.16
44.51	4824	-0.16
44.56	4830	-0.16
44.61	4836	-0.16
44.66	4842	-0.16
44.71	4848	-0.16
44.76	4854	-0.16
44.82	4860	-0.16
44.87	4866	-0.16
44.92	4872	-0.16
44.97	4878	-0.16
45.02	4884	-0.16
45.07	4890	-0.16
45.12	4896	-0.16
45.17	4902	-0.16
45.22	4908	-0.16
45.27	4914	-0.16
45.32	4920	-0.16
45.37	4926	-0.16
45.42	4932	-0.16
45.47	4938	-0.16
45.52	4944	-0.16
45.57	4950	-0.16
45.62	4956	-0.17
45.68	4962	-0.17
45.73	4968	-0.17
45.78	4974	-0.17
45.83	4980	-0.17
45.88	4986	-0.17
45.93	4992	-0.17
45.98	4998	-0.17
46.03	5004	-0.17
46.08	5010	-0.17
46.13	5016	-0.17
46.18	5022	-0.17
46.23	5028	-0.16
46.28	5034	-0.16
46.34	5040	-0.16
46.40	5046	-0.16
46.44	5052	-0.16
46.49	5058	-0.16
46.54	5064	-0.16
46.59	5070	-0.16
46.64	5076	-0.16
46.69	5082	-0.16
46.74	5088	-0.16
46.80	5094	-0.16
46.84	5100	-0.16
46.89	5106	-0.16
46.94	5112	-0.16
46.99	5118	-0.16
47.04	5124	-0.16
47.09	5130	-0.16
47.14	5136	-0.16
47.19	5142	-0.16
47.24	5148	-0.16
47.29	5154	-0.16
47.34	5160	-0.16
47.39	5166	-0.16
47.44	5172	-0.16
47.50	5178	-0.16
47.55	5184	-0.16
47.60	5190	-0.16
47.65	5196	-0.16
47.70	5202	-0.16
47.75	5208	-0.16
47.80	5214	-0.16
47.85	5220	-0.16
47.90	5226	-0.16
47.95	5232	-0.16
48.00	5238	-0.16
48.05	5244	-0.16
48.10	5250	-0.16
48.15	5256	-0.16
48.20	5262	-0.16
48.25	5268	-0.16
48.31	5274	-0.16
48.36	5280	-0.16
48.41	5286	-0.16
48.46	5292	-0.16
48.51	5298	-0.16
48.56	5304	-0.16
48.61	5310	-0.16
48.66	5316	-0.16
48.71	5322	-0.17
48.76	5328	-0.17
48.81	5334	-0.17
48.86	5340	-0.17
48.91	5346	-0.17
48.96	5352	-0.17
49.01	5358	-0.17
49.07	5364	-0.17
49.12	5370	-0.17
49.17	5376	-0.16
49.22	5382	-0.17
49.27	5388	-0.16
49.32	5394	-0.17
49.37	5400	-0.16
49.42	5406	-0.16
49.47	5412	-0.16
49.52	5418	-0.16
49.57	5424	-0.16
49.62	5430	-0.16
49.68	5436	-0.16
49.73	5442	-0.16
49.78	5448	-0.16
49.83	5454	-0.16
49.88	5460	-0.16
49.93	5466	-0.17
49.98	5472	-0.16
50.03	5478	-0.17
50.08	5484	-0.17
50.13	5490	-0.17
50.18	5496	-0.16
50.23	5502	-0.16
50.28	5508	-0.17
50.33	5514	-0.17
50.38	5520	-0.17
50.43	5526	-0.17
50.48	5532	-0.17
50.53	5538	-0.17
50.58	5544	-0.17
50.63	5550	-0.17
50.69	5556	-0.17
50.74	5562	-0.17
50.79	5568	-0.17
50.84	5574	-0.17
50.89	5580	-0.17
50.94	5586	-0.17
50.99	5592	-0.17
51.04	5598	-0.17
51.09	5604	-0.17
51.14	5610	-0.17
51.20	5616	-0.17
51.25	5622	-0.17
51.30	5628	-0.17
51.35	5634	-0.17
51.40	5640	-0.16
51.45	5646	-0.16
51.50	5652	-0.16
51.55	5658	-0.16
51.60	5664	-0.16
51.65	5670	-0.16
51.70	5676	-0.17
51.75	5682	-0.16
51.80	5688	-0.16
51.85	5694	-0.16
51.90	5700	-0.16
51.95	5706	-0.17
52.00	5712	-0.17
52.05	5718	-0.16
52.10	5724	-0.16
52.15	5730	-0.16
52.20	5736	-0.17
52.25	5742	-0.17
52.30	5748	-0.17
52.35	5754	-0.17
52.40	5760	-0.17
52.45	5766	-0.17
52.50	5772	-0.17
52.55	5778	-0.17
52.60	5784	-0.17
52.66	5790	-0.17
52.71	5796	-0.16
52.77	5802	-0.17
52.81	5808	-0.17
52.86	5814	-0.17
52.91	5820	-0.17
52.97	5826	-0.17
53.01	5832	-0.17
53.06	5838	-0.16
53.12	5844	-0.16
53.17	5850	-0.16
53.22	5856	-0.16
53.26	5862	-0.16
53.32	5868	-0.16
53.37	5874	-0.16
53.42	5880	-0.16
53.47	5886	-0.16
53.52	5892	-0.16
53.57	5898	-0.16
53.62	5904	-0.16
53.67	5910	-0.16
53.72	5916	-0.16
53.77	5922	-0.16
53.82	5928	-0.16
53.87	5934	-0.16
53.92	5940	-0.16
53.97	5946	-0.16
54.02	5952	-0.16
54.07	5958	-0.16
54.12	5964	-0.16
54.17	5970	-0.16
54.22	5976	-0.17
54.27	5982	-0.16
54.33	5988	-0.16
54.38	5994	-0.16
54.43	6000	-0.16
54.48	6006	-0.16
54.53	6012	-0.16
54.58	6018	-0.16
54.63	6024	-0.16
54.68	6030	-0.16
54.73	6036	-0.17
54.78	6042	-0.17
54.83	6048	-0.17
54.88	6054	-0.17
54.94	6060	-0.17
54.99	6066	-0.17
55.04	6072	-0.16
55.09	6078	-0.17
55.14	6084	-0.17
55.19	6090	-0.17
55.24	6096	-0.17
55.29	6102	-0.17
55.34	6108	-0.17
55.39	6114	-0.17
55.44	6120	-0.17
55.49	6126	-0.16
55.54	6132	-0.17
55.59	6138	-0.17
55.64	6144	-0.17
55.70	6150	-0.17
55.75	6156	-0.17
55.80	6162	-0.17
55.85	6168	-0.17
55.90	6174	-0.17
55.95	6180	-0.17
56.00	6186	-0.17
56.05	6192	-0.16
56.10	6198	-0.16
56.16	6204	-0.16
56.20	6210	-0.16
56.25	6216	-0.16
56.31	6222	-0.17
56.36	6228	-0.17
56.41	6234	-0.17
56.45	6240	-0.17
56.51	6246	-0.17
56.56	6252	-0.17
56.61	6258	-0.17
56.66	6264	-0.16
56.71	6270	-0.16
56.76	6276	-0.16
56.81	6282	-0.16
56.87	6288	-0.16
56.91	6294	-0.16
56.96	6300	-0.16
57.01	6306	-0.16
57.06	6312	-0.16
57.11	6318	-0.16
57.16	6324	-0.17
57.21	6330	-0.17
57.26	6336	-0.16
57.31	6342	-0.17
57.37	6348	-0.17
57.42	6354	-0.17
57.47	6360	-0.17
57.52	6366	-0.16
57.57	6372	-0.16
57.61	6378	-0.16
57.66	6384	-0.16
57.72	6390	-0.16
57.77	6396	-0.17
57.82	6402	-0.16
57.87	6408	-0.16
57.92	6414	-0.16
57.97	6420	-0.16
58.02	6426	-0.16
58.08	6432	-0.17
58.12	6438	-0.17
58.18	6444	-0.16
58.23	6450	-0.16
58.28	6456	-0.16
58.33	6462	-0.16
58.38	6468	-0.16
58.43	6474	-0.17
58.48	6480	-0.16
58.53	6486	-0.16
58.58	6492	-0.16
58.63	6498	-0.16
58.68	6504	-0.16
58.73	6510	-0.16
58.78	6516	-0.16
58.83	6522	-0.16
58.88	6528	-0.16
58.94	6534	-0.16
58.99	6540	-0.16
59.04	6546	-0.16
59.09	6552	-0.16
59.14	6558	-0.16
59.19	6564	-0.16
59.24	6570	-0.17
59.29	6576	-0.16
59.34	6582	-0.16
59.39	6588	-0.17
59.44	6594	-0.16
59.49	6600	-0.16
59.54	6606	-0.16
59.60	6612	-0.16
59.65	6618	-0.17
59.69	6624	-0.16
59.74	6630	-0.16
59.80	6636	-0.16
59.85	6642	-0.16
59.90	6648	-0.16
59.95	6654	-0.16
60.00	6660	-0.16
60.05	6666	-0.17
60.10	6672	-0.16
60.15	6678	-0.16
60.20	6684	-0.16
60.25	6690	-0.16
60.30	6696	-0.16
60.35	6702	-0.16
60.40	6708	-0.17
60.45	6714	-0.16
60.50	6720	-0.16
60.55	6726	-0.16
60.60	6732	-0.16
60.66	6738	-0.16
60.71	6744	-0.17
60.76	6750	-0.16
60.81	6756	-0.16
60.86	6762	-0.16
60.91	6768	-0.16
60.96	6774	-0.16
61.01	6780	-0.16
61.06	6786	-0.16
61.11	6792	-0.16
61.16	6798	-0.16
61.21	6804	-0.16
61.26	6810	-0.16
61.31	6816	-0.16
61.36	6822	-0.16
61.41	6828	-0.16
61.46	6834	-0.16
61.52	6840	-0.16
61.57	6846	-0.16
61.62	6852	-0.16
61.67	6858	-0.16
61.72	6864	-0.16
61.77	6870	-0.16
61.82	6876	-0.17
61.87	6882	-0.17
61.92	6888	-0.17
61.97	6894	-0.17
62.02	6900	-0.17
62.07	6906	-0.17
62.12	6912	-0.17
62.17	6918	-0.17
62.22	6924	-0.17
62.27	6930	-0.17
62.33	6936	-0.17
62.37	6942	-0.17
62.43	6948	-0.17
62.49	6954	-0.17
62.54	6960	-0.16
62.59	6966	-0.16
62.64	6972	-0.17
62.69	6978	-0.17
62.74	6984	-0.17
62.79	6990	-0.16
62.84	6996	-0.17
62.89	7002	-0.16
62.94	7008	-0.16
62.99	7014	-0.16
63.04	7020	-0.17
63.09	7026	-0.17
63.14	7032	-0.17
63.19	7038	-0.16
63.24	7044	-0.16
63.29	7050	-0.17
63.34	7056	-0.16
63.39	7062	-0.16
63.44	7068	-0.16
63.49	7074	-0.16
63.54	7080	-0.16
63.59	7086	-0.16
63.64	7092	-0.16
63.69	7098	-0.17
63.74	7104	-0.16
63.80	7110	-0.16
63.84	7116	-0.16
63.90	7122	-0.16
63.95	7128	-0.16
64.00	7134	-0.16
64.05	7140	-0.16
64.10	7146	-0.16
64.15	7152	-0.16
64.20	7158	-0.16
64.25	7164	-0.16
64.30	7170	-0.16
64.35	7176	-0.16
64.40	7182	-0.16
64.45	7188	-0.16
64.50	7194	-0.16
64.55	7200	-0.16