File: rawdata/ww_7
H2O_H2O
Furnace temperature 	Time	HeatFlow
/°C	/s	/mW
64.80	0	-0.16
64.91	2	-0.16
65.19	4	-0.16
65.63	6	-0.16
66.16	8	-0.17
66.69	11	-0.18
67.13	13	-0.19
67.47	15	-0.21
67.69	17	-0.23
67.80	19	-0.25
67.84	21	-0.28
67.85	23	-0.30
67.83	25	-0.33
67.82	27	-0.35
67.81	29	-0.38
67.81	32	-0.40
67.82	34	-0.42
67.82	36	-0.45
67.83	38	-0.47
67.83	40	-0.49
67.82	42	-0.51
67.81	44	-0.54
67.79	46	-0.56
67.77	48	-0.58
67.75	50	-0.59
67.72	53	-0.61
67.70	55	-0.63
67.68	57	-0.64
67.66	59	-0.66
67.63	61	-0.67
67.61	63	-0.68
67.58	65	-0.70
67.55	67	-0.71
67.52	69	-0.71
67.49	71	-0.72
67.46	74	-0.73
67.43	76	-0.74
67.40	78	-0.74
67.37	80	-0.75
67.34	82	-0.75
67.30	84	-0.75
67.27	86	-0.75
67.24	88	-0.75
67.20	90	-0.75
67.17	92	-0.75
67.13	95	-0.75
67.10	97	-0.74
67.06	99	-0.74
67.03	101	-0.73
66.99	103	-0.73
66.95	105	-0.72
66.92	107	-0.71
66.88	109	-0.71
66.84	111	-0.70
66.81	113	-0.69
66.77	116	-0.69
66.73	118	-0.68
66.69	120	-0.67
66.65	122	-0.66
66.62	124	-0.66
66.58	126	-0.65
66.54	128	-0.64
66.50	130	-0.64
66.46	132	-0.63
66.42	134	-0.63
66.38	137	-0.62
66.34	139	-0.62
66.30	141	-0.61
66.26	143	-0.60
66.22	145	-0.60
66.18	147	-0.59
66.14	149	-0.59
66.10	151	-0.58
66.06	153	-0.57
66.02	155	-0.56
65.98	158	-0.55
65.94	160	-0.55
65.90	162	-0.54
65.90	164	-0.53
65.91	166	-0.52
65.90	168	-0.51
65.88	170	-0.50
65.85	172	-0.49
65.80	174	-0.48
65.75	176	-0.48
65.70	179	-0.47
65.65	181	-0.45
65.61	183	-0.44
65.57	185	-0.43
65.54	187	-0.42
65.51	189	-0.41
65.47	191	-0.40
65.44	193	-0.39
65.40	195	-0.38
65.36	197	-0.37
65.31	200	-0.36
65.27	202	-0.35
65.23	204	-0.34
65.19	206	-0.33
65.15	208	-0.31
65.11	210	-0.30
65.07	212	-0.29
65.02	214	-0.28
64.98	216	-0.27
64.94	218	-0.26
64.90	221	-0.25
64.86	223	-0.24
64.81	225	-0.23
64.77	227	-0.23
64.73	229	-0.22
64.68	231	-0.21
64.64	233	-0.19
64.60	235	-0.18
64.56	237	-0.17
64.51	239	-0.16
64.47	242	-0.15
64.43	244	-0.14
64.38	246	-0.13
64.34	248	-0.12
64.30	250	-0.12
64.26	252	-0.11
64.21	254	-0.10
64.17	256	-0.09
64.12	258	-0.08
64.08	260	-0.07
64.04	263	-0.06
63.99	265	-0.05
63.95	267	-0.04
63.91	269	-0.04
63.86	271	-0.03
63.82	273	-0.02
63.78	275	-0.01
63.73	277	-0.00
63.69	279	0.00
63.65	281	0.01
63.60	284	0.02
63.56	286	0.03
63.51	288	0.03
63.47	290	0.04
63.43	292	0.05
63.38	294	0.05
63.34	296	0.06
63.30	298	0.07
63.25	300	0.07
63.21	302	0.07
63.16	305	0.08
63.12	307	0.09
63.08	309	0.09
63.03	311	0.09
62.99	313	0.10
62.95	315	0.10
62.90	317	0.11
62.86	319	0.11
62.81	321	0.12
62.77	323	0.12
62.73	326	0.13
62.68	328	0.13
62.64	330	0.14
62.60	332	0.14
62.55	334	0.15
62.51	336	0.15
62.46	338	0.15
62.42	340	0.16
62.38	342	0.16
62.33	344	0.17
62.29	347	0.17
62.25	349	0.17
62.20	351	0.18
62.16	353	0.18
62.12	355	0.19
62.07	357	0.19
62.03	359	0.19
61.98	361	0.19
61.94	363	0.20
61.90	365	0.20
61.85	368	0.21
61.81	370	0.21
61.77	372	0.21
61.72	374	0.21
61.68	376	0.21
61.64	378	0.22
61.59	380	0.22
61.55	382	0.22
61.51	384	0.22
61.46	386	0.23
61.42	389	0.23
61.37	391	0.23
61.33	393	0.24
61.29	395	0.24
61.25	397	0.24
61.20	399	0.24
61.16	401	0.25
61.12	403	0.25
61.07	405	0.25
61.03	407	0.25
60.98	410	0.25
60.94	412	0.26
60.90	414	0.26
60.85	416	0.26
60.81	418	0.26
60.77	420	0.27
60.73	422	0.27
60.68	424	0.27
60.64	426	0.27
60.59	428	0.27
60.55	431	0.27
60.51	433	0.27
60.46	435	0.27
60.42	437	0.27
60.38	439	0.28
60.33	441	0.28
60.29	443	0.28
60.25	445	0.28
60.21	447	0.28
60.16	449	0.28
60.12	452	0.28
60.08	454	0.29
60.03	456	0.29
59.99	458	0.29
59.95	460	0.29
59.90	462	0.29
59.86	464	0.29
59.82	466	0.29
59.78	468	0.29
59.73	470	0.29
59.69	473	0.29
59.64	475	0.29
59.60	477	0.29
59.56	479	0.30
59.52	481	0.30
59.47	483	0.30
59.43	485	0.30
59.39	487	0.30
59.34	489	0.30
59.30	491	0.30
59.26	494	0.30
59.22	496	0.30
59.17	498	0.30
59.13	500	0.31
59.09	502	0.31
59.04	504	0.31
59.00	506	0.31
58.96	508	0.31
58.91	510	0.31
58.87	512	0.31
58.83	515	0.31
58.79	517	0.31
58.74	519	0.31
58.70	521	0.31
58.66	523	0.31
58.61	525	0.31
58.57	527	0.31
58.53	529	0.31
58.48	531	0.31
58.44	533	0.31
58.40	536	0.31
58.36	538	0.31
58.31	540	0.31
58.27	542	0.31
58.23	544	0.31
58.18	546	0.31
58.14	548	0.32
58.10	550	0.32
58.06	552	0.32
58.01	554	0.32
57.97	557	0.32
57.93	559	0.32
57.88	561	0.32
57.84	563	0.32
57.80	565	0.32
57.76	567	0.32
57.71	569	0.32
57.67	571	0.32
57.63	573	0.32
57.59	575	0.32
57.54	578	0.32
57.50	580	0.32
57.46	582	0.32
57.41	584	0.32
57.37	586	0.32
57.33	588	0.32
57.29	590	0.32
57.24	592	0.32
57.20	594	0.32
57.16	596	0.32
57.12	599	0.32
57.07	601	0.32
57.03	603	0.32
56.99	605	0.32
56.94	607	0.32
56.90	609	0.32
56.86	611	0.33
56.81	613	0.33
56.77	615	0.32
56.73	617	0.32
56.69	620	0.32
56.64	622	0.33
56.60	624	0.33
56.56	626	0.33
56.52	628	0.33
56.47	630	0.33
56.43	632	0.33
56.39	634	0.33
56.35	636	0.33
56.30	638	0.33
56.26	641	0.33
56.22	643	0.33
56.17	645	0.33
56.13	647	0.33
56.09	649	0.33
56.05	651	0.33
56.00	653	0.33
55.96	655	0.33
55.92	657	0.33
55.88	659	0.33
55.83	662	0.33
55.79	664	0.33
55.75	666	0.33
55.71	668	0.33
55.66	670	0.33
55.62	672	0.33
55.58	674	0.33
55.54	676	0.33
55.49	678	0.33
55.45	680	0.33
55.41	683	0.33
55.37	685	0.33
55.32	687	0.33
55.28	689	0.33
55.24	691	0.33
55.19	693	0.33
55.15	695	0.33
55.11	697	0.33
55.07	699	0.33
55.02	701	0.33
54.98	704	0.33
54.94	706	0.33
54.90	708	0.33
54.85	710	0.33
54.81	712	0.33
54.77	714	0.33
54.73	716	0.33
54.68	718	0.33
54.64	720	0.33
54.60	722	0.33
54.56	725	0.33
54.51	727	0.33
54.47	729	0.33
54.43	731	0.33
54.38	733	0.33
54.34	735	0.33
54.30	737	0.33
54.26	739	0.33
54.21	741	0.33
54.17	743	0.33
54.13	746	0.33
54.09	748	0.33
54.04	750	0.33
54.00	752	0.33
53.96	754	0.32
53.92	756	0.33
53.87	758	0.32
53.83	760	0.32
53.79	762	0.32
53.75	764	0.32
53.70	767	0.33
53.66	769	0.32
53.62	771	0.32
53.58	773	0.32
53.53	775	0.32
53.49	777	0.32
53.45	779	0.32
53.40	781	0.32
53.36	783	0.32
53.32	785	0.32
53.28	788	0.32
53.23	790	0.33
53.19	792	0.32
53.15	794	0.32
53.11	796	0.32
53.07	798	0.33
53.02	800	0.32
52.98	802	0.32
52.94	804	0.32
52.89	806	0.32
52.85	809	0.32
52.81	811	0.32
52.77	813	0.32
52.72	815	0.32
52.68	817	0.32
52.64	819	0.32
52.60	821	0.32
52.55	823	0.32
52.51	825	0.32
52.47	827	0.32
52.42	830	0.32
52.38	832	0.32
52.34	834	0.32
52.30	836	0.32
52.26	838	0.32
52.21	840	0.32
52.17	842	0.32
52.13	844	0.32
52.09	846	0.32
52.04	848	0.32
52.00	851	0.32
51.96	853	0.32
51.92	855	0.32
51.87	857	0.32
51.83	859	0.32
51.79	861	0.32
51.75	863	0.32
51.70	865	0.32
51.66	867	0.32
51.62	869	0.32
51.58	872	0.32
51.53	874	0.32
51.49	876	0.32
51.45	878	0.32
51.41	880	0.32
51.36	882	0.32
51.32	884	0.32
51.28	886	0.32
51.24	888	0.32
51.19	890	0.32
51.15	893	0.32
51.11	895	0.31
51.06	897	0.31
51.02	899	0.32
50.98	901	0.32
50.94	903	0.31
50.90	905	0.31
50.85	907	0.31
50.81	909	0.31
50.77	911	0.31
50.72	914	0.31
50.68	916	0.31
50.64	918	0.32
50.60	920	0.31
50.55	922	0.31
50.51	924	0.31
50.47	926	0.31
50.43	928	0.32
50.39	930	0.32
50.34	932	0.31
50.30	935	0.31
50.26	937	0.31
50.21	939	0.31
50.17	941	0.31
50.13	943	0.31
50.09	945	0.31
50.04	947	0.31
50.00	949	0.31
49.96	951	0.31
49.92	953	0.31
49.87	956	0.31
49.83	958	0.31
49.79	960	0.31
49.75	962	0.31
49.70	964	0.31
49.66	966	0.31
49.62	968	0.31
49.58	970	0.31
49.53	972	0.31
49.49	974	0.31
49.45	977	0.31
49.41	979	0.31
49.36	981	0.31
49.32	983	0.31
49.28	985	0.31
49.24	987	0.31
49.19	989	0.31
49.15	991	0.31
49.11	993	0.31
49.07	995	0.31
49.02	998	0.31
48.98	1000	0.31
48.94	1002	0.31
48.90	1004	0.31
48.85	1006	0.31
48.81	1008	0.31
48.77	1010	0.31
48.73	1012	0.31
48.68	1014	0.31
48.64	1016	0.31
48.60	1019	0.31
48.56	1021	0.31
48.51	1023	0.31
48.47	1025	0.31
48.43	1027	0.31
48.39	1029	0.31
48.34	1031	0.31
48.30	1033	0.30
48.26	1035	0.30
48.22	1037	0.30
48.17	1040	0.31
48.13	1042	0.31
48.09	1044	0.31
48.05	1046	0.31
48.00	1048	0.31
47.96	1050	0.31
47.92	1052	0.30
47.88	1054	0.30
47.83	1056	0.30
47.79	1058	0.30
47.75	1061	0.31
47.71	1063	0.31
47.66	1065	0.30
47.62	1067	0.30
47.58	1069	0.30
47.54	1071	0.30
47.49	1073	0.30
47.45	1075	0.30
47.41	1077	0.30
47.37	1079	0.30
47.32	1082	0.30
47.28	1084	0.31
47.24	1086	0.30
47.20	1088	0.30
47.15	1090	0.30
47.11	1092	0.30
47.07	1094	0.30
47.03	1096	0.30
46.98	1098	0.30
46.94	1100	0.30
46.90	1103	0.30
46.86	1105	0.30
46.81	1107	0.30
46.77	1109	0.30
46.73	1111	0.30
46.68	1113	0.30
46.64	1115	0.30
46.60	1117	0.30
46.56	1119	0.30
46.52	1121	0.30
46.47	1124	0.30
46.43	1126	0.30
46.39	1128	0.30
46.35	1130	0.30
46.30	1132	0.30
46.26	1134	0.30
46.22	1136	0.30
46.17	1138	0.30
46.13	1140	0.30
46.09	1142	0.30
46.05	1145	0.30
46.01	1147	0.30
45.96	1149	0.29
45.92	1151	0.29
45.88	1153	0.29
45.83	1155	0.30
45.79	1157	0.30
45.75	1159	0.30
45.71	1161	0.30
45.66	1163	0.30
45.62	1166	0.30
45.58	1168	0.29
45.54	1170	0.29
45.50	1172	0.29
45.45	1174	0.29
45.41	1176	0.29
45.37	1178	0.30
45.33	1180	0.29
45.28	1182	0.29
45.24	1184	0.29
45.20	1187	0.29
45.15	1189	0.29
45.11	1191	0.29
45.07	1193	0.29
45.03	1195	0.29
44.99	1197	0.29
44.94	1199	0.29
44.90	1201	0.29
44.86	1203	0.29
44.82	1205	0.29
44.77	1208	0.29
44.73	1210	0.29
44.69	1212	0.29
44.65	1214	0.29
44.60	1216	0.29
44.56	1218	0.29
44.52	1220	0.29
44.48	1222	0.29
44.43	1224	0.29
44.39	1226	0.29
44.35	1229	0.29
44.30	1231	0.29
44.26	1233	0.29
44.22	1235	0.29
44.18	1237	0.29
44.14	1239	0.29
44.09	1241	0.29
44.05	1243	0.29
44.01	1245	0.29
43.97	1247	0.29
43.92	1250	0.29
43.88	1252	0.29
43.84	1254	0.28
43.79	1256	0.29
43.75	1258	0.29
43.71	1260	0.29
43.67	1262	0.29
43.62	1264	0.29
43.58	1266	0.29
43.54	1268	0.29
43.50	1271	0.29
43.46	1273	0.28
43.41	1275	0.28
43.37	1277	0.29
43.33	1279	0.28
43.29	1281	0.28
43.24	1283	0.28
43.20	1285	0.28
43.16	1287	0.28
43.11	1289	0.28
43.07	1292	0.28
43.03	1294	0.28
42.99	1296	0.28
42.95	1298	0.28
42.90	1300	0.28
42.86	1302	0.28
42.82	1304	0.28
42.77	1306	0.28
42.73	1308	0.29
42.69	1310	0.28
42.65	1313	0.28
42.61	1315	0.28
42.56	1317	0.28
42.52	1319	0.28
42.48	1321	0.28
42.43	1323	0.28
42.39	1325	0.28
42.35	1327	0.28
42.31	1329	0.28
42.26	1331	0.28
42.22	1334	0.28
42.18	1336	0.28
42.14	1338	0.28
42.10	1340	0.28
42.05	1342	0.28
42.01	1344	0.28
41.97	1346	0.28
41.93	1348	0.28
41.88	1350	0.28
41.84	1352	0.28
41.80	1355	0.28
41.76	1357	0.28
41.71	1359	0.28
41.67	1361	0.28
41.63	1363	0.28
41.59	1365	0.28
41.54	1367	0.28
41.50	1369	0.28
41.46	1371	0.28
41.42	1373	0.28
41.37	1376	0.28
41.33	1378	0.28
41.29	1380	0.28
41.25	1382	0.28
41.20	1384	0.28
41.16	1386	0.28
41.12	1388	0.28
41.08	1390	0.28
41.03	1392	0.28
40.99	1394	0.28
40.95	1397	0.28
40.91	1399	0.28
40.86	1401	0.28
40.82	1403	0.28
40.78	1405	0.27
40.74	1407	0.28
40.69	1409	0.27
40.65	1411	0.27
40.61	1413	0.27
40.57	1415	0.27
40.52	1418	0.27
40.48	1420	0.27
40.44	1422	0.27
40.40	1424	0.27
40.35	1426	0.27
40.31	1428	0.27
40.27	1430	0.27
40.23	1432	0.27
40.18	1434	0.27
40.14	1436	0.28
40.10	1439	0.27
40.06	1441	0.27
40.01	1443	0.27
39.97	1445	0.27
39.93	1447	0.27
39.89	1449	0.27
39.84	1451	0.27
39.80	1453	0.28
39.76	1455	0.27
39.72	1457	0.27
39.67	1460	0.27
39.63	1462	0.27
39.59	1464	0.27
39.55	1466	0.27
39.50	1468	0.27
39.46	1470	0.27
39.42	1472	0.27
39.38	1474	0.27
39.33	1476	0.27
39.29	1478	0.27
39.25	1481	0.27
39.20	1483	0.27
39.16	1485	0.27
39.12	1487	0.27
39.08	1489	0.27
39.04	1491	0.27
38.99	1493	0.27
38.95	1495	0.27
38.91	1497	0.27
38.87	1499	0.27
38.82	1502	0.27
38.78	1504	0.27
38.74	1506	0.27
38.70	1508	0.27
38.65	1510	0.27
38.61	1512	0.27
38.57	1514	0.27
38.53	1516	0.27
38.48	1518	0.27
38.44	1520	0.27
38.40	1523	0.27
38.36	1525	0.27
38.31	1527	0.27
38.27	1529	0.26
38.23	1531	0.26
38.19	1533	0.26
38.14	1535	0.27
38.10	1537	0.27
38.06	1539	0.26
38.02	1541	0.26
37.97	1544	0.26
37.93	1546	0.26
37.89	1548	0.26
37.85	1550	0.27
37.80	1552	0.27
37.76	1554	0.27
37.72	1556	0.26
37.68	1558	0.26
37.63	1560	0.26
37.59	1562	0.26
37.55	1565	0.26
37.51	1567	0.26
37.46	1569	0.26
37.42	1571	0.26
37.38	1573	0.27
37.34	1575	0.27
37.29	1577	0.27
37.25	1579	0.27
37.21	1581	0.27
37.17	1583	0.27
37.12	1586	0.26
37.08	1588	0.26
37.04	1590	0.26
37.00	1592	0.26
36.95	1594	0.26
36.91	1596	0.26
36.87	1598	0.26
36.83	1600	0.26
36.78	1602	0.26
36.74	1604	0.26
36.70	1607	0.26
36.66	1609	0.26
36.61	1611	0.26
36.57	1613	0.26
36.53	1615	0.26
36.49	1617	0.26
36.44	1619	0.26
36.40	1621	0.26
36.36	1623	0.26
36.32	1625	0.26
36.27	1628	0.26
36.23	1630	0.26
36.19	1632	0.26
36.15	1634	0.26
36.11	1636	0.26
36.06	1638	0.26
36.02	1640	0.26
35.98	1642	0.26
35.94	1644	0.26
35.89	1646	0.26
35.85	1649	0.26
35.81	1651	0.26
35.76	1653	0.26
35.72	1655	0.26
35.68	1657	0.26
35.64	1659	0.26
35.60	1661	0.26
35.55	1663	0.26
35.51	1665	0.26
35.47	1667	0.26
35.43	1670	0.26
35.38	1672	0.26
35.34	1674	0.26
35.30	1676	0.26
35.25	1678	0.26
35.21	1680	0.26
35.17	1682	0.26
35.13	1684	0.26
35.09	1686	0.26
35.04	1688	0.26
35.00	1691	0.26
34.96	1693	0.26
34.92	1695	0.26
34.87	1697	0.26
34.83	1699	0.26
34.79	1701	0.26
34.75	1703	0.26
34.70	1705	0.25
34.66	1707	0.26
34.62	1709	0.26
34.58	1712	0.26
34.53	1714	0.26
34.49	1716	0.26
34.45	1718	0.26
34.41	1720	0.26
34.36	1722	0.26
34.32	1724	0.26
34.28	1726	0.26
34.24	1728	0.26
34.19	1730	0.26
34.15	1733	0.26
34.11	1735	0.26
34.07	1737	0.26
34.02	1739	0.26
33.98	1741	0.26
33.94	1743	0.26
33.90	1745	0.26
33.85	1747	0.26
33.81	1749	0.26
33.77	1751	0.26
33.73	1754	0.26
33.68	1756	0.26
33.64	1758	0.26
33.60	1760	0.26
33.56	1762	0.26
33.51	1764	0.26
33.47	1766	0.26
33.43	1768	0.25
33.39	1770	0.26
33.35	1772	0.26
33.30	1775	0.25
33.26	1777	0.25
33.22	1779	0.25
33.17	1781	0.25
33.13	1783	0.25
33.09	1785	0.25
33.05	1787	0.25
33.00	1789	0.25
32.96	1791	0.25
32.92	1793	0.25
32.88	1796	0.25
32.83	1798	0.25
32.79	1800	0.25
32.75	1802	0.25
32.71	1804	0.25
32.66	1806	0.25
32.62	1808	0.25
32.58	1810	0.25
32.54	1812	0.25
32.50	1814	0.25
32.45	1817	0.25
32.41	1819	0.25
32.37	1821	0.25
32.33	1823	0.25
32.28	1825	0.25
32.24	1827	0.25
32.20	1829	0.25
32.16	1831	0.25
32.11	1833	0.25
32.07	1835	0.25
32.03	1838	0.25
31.99	1840	0.25
31.94	1842	0.25
31.90	1844	0.25
31.86	1846	0.25
31.82	1848	0.25
31.77	1850	0.25
31.73	1852	0.25
31.69	1854	0.25
31.65	1856	0.25
31.60	1859	0.25
31.56	1861	0.25
31.52	1863	0.25
31.48	1865	0.25
31.43	1867	0.25
31.39	1869	0.25
31.35	1871	0.25
31.31	1873	0.25
31.26	1875	0.25
31.22	1877	0.25
31.18	1880	0.25
31.14	1882	0.25
31.09	1884	0.25
31.05	1886	0.25
31.01	1888	0.25
30.97	1890	0.25
30.92	1892	0.25
30.88	1894	0.25
30.84	1896	0.25
30.80	1898	0.25
30.75	1901	0.25
30.71	1903	0.25
30.67	1905	0.25
30.63	1907	0.25
30.58	1909	0.25
30.54	1911	0.25
30.50	1913	0.25
30.46	1915	0.25
30.42	1917	0.25
30.37	1919	0.25
30.33	1922	0.25
30.29	1924	0.25
30.24	1926	0.25
30.20	1928	0.25
30.16	1930	0.25
30.12	1932	0.25
30.08	1934	0.25
30.03	1936	0.25
29.99	1938	0.25
29.95	1940	0.25
29.90	1943	0.25
29.86	1945	0.25
29.82	1947	0.25
29.78	1949	0.25
29.73	1951	0.25
29.69	1953	0.25
29.65	1955	0.25
29.61	1957	0.25
29.57	1959	0.25
29.52	1961	0.25
29.48	1964	0.25
29.44	1966	0.25
29.40	1968	0.25
29.35	1970	0.25
29.31	1972	0.25
29.27	1974	0.25
29.23	1976	0.25
29.18	1978	0.25
29.14	1980	0.25
29.10	1982	0.25
29.06	1985	0.25
29.01	1987	0.25
28.97	1989	0.25
28.93	1991	0.25
28.89	1993	0.25
28.84	1995	0.25
28.80	1997	0.25
28.76	1999	0.25
28.72	2001	0.25
28.67	2003	0.25
28.63	2006	0.25
28.59	2008	0.25
28.55	2010	0.25
28.50	2012	0.25
28.46	2014	0.25
28.42	2016	0.25
28.38	2018	0.25
28.33	2020	0.25
28.29	2022	0.25
28.25	2024	0.25
28.21	2027	0.25
28.16	2029	0.25
28.12	2031	0.25
28.08	2033	0.25
28.04	2035	0.25
27.99	2037	0.25
27.95	2039	0.25
27.91	2041	0.25
27.87	2043	0.25
27.83	2045	0.25
27.78	2048	0.25
27.74	2050	0.25
27.70	2052	0.25
27.65	2054	0.24
27.61	2056	0.24
27.57	2058	0.25
27.53	2060	0.25
27.49	2062	0.25
27.44	2064	0.25
27.40	2066	0.25
27.36	2069	0.25
27.32	2071	0.25
27.27	2073	0.25
27.23	2075	0.25
27.19	2077	0.25
27.15	2079	0.25
27.10	2081	0.25
27.06	2083	0.25
27.02	2085	0.25
26.98	2087	0.25
26.93	2090	0.25
26.89	2092	0.25
26.85	2094	0.25
26.81	2096	0.25
26.76	2098	0.25
26.72	2100	0.25
26.68	2102	0.25
26.64	2104	0.25
26.59	2106	0.25
26.55	2108	0.25
26.51	2111	0.25
26.47	2113	0.25
26.42	2115	0.25
26.38	2117	0.25
26.34	2119	0.25
26.30	2121	0.25
26.26	2123	0.25
26.21	2125	0.25
26.17	2127	0.25
26.13	2129	0.25
26.08	2132	0.25
26.04	2134	0.25
26.00	2136	0.25
25.96	2138	0.25
25.92	2140	0.25
25.87	2142	0.25
25.83	2144	0.25
25.79	2146	0.25
25.75	2148	0.25
25.70	2150	0.25
25.66	2153	0.25
25.62	2155	0.25
25.57	2157	0.25
25.53	2159	0.25
25.49	2161	0.25
25.45	2163	0.25
25.41	2165	0.25
25.36	2167	0.25
25.32	2169	0.25
25.28	2171	0.25
25.24	2174	0.25
25.19	2176	0.25
25.15	2178	0.25
25.11	2180	0.25
25.07	2182	0.25
25.02	2184	0.24
24.98	2186	0.25
24.94	2188	0.25
24.90	2190	0.25
24.86	2192	0.25
24.81	2195	0.25
24.77	2197	0.25
24.73	2199	0.25
24.68	2201	0.25
24.64	2203	0.24
24.60	2205	0.24
24.56	2207	0.25
24.51	2209	0.25
24.47	2211	0.24
24.43	2213	0.24
24.39	2216	0.24
24.35	2218	0.25
24.31	2220	0.24
24.26	2222	0.24
24.22	2224	0.25
24.18	2226	0.25
24.14	2228	0.25
24.10	2230	0.25
24.06	2232	0.25
24.01	2234	0.25
23.97	2237	0.25
23.93	2239	0.25
23.89	2241	0.25
23.84	2243	0.25
23.80	2245	0.24
23.76	2247	0.24
23.72	2249	0.25
23.68	2251	0.24
23.63	2253	0.24
23.59	2255	0.24
23.55	2258	0.25
23.50	2260	0.25
23.46	2262	0.25
23.42	2264	0.24
23.38	2266	0.24
23.33	2268	0.24
23.29	2270	0.24
23.25	2272	0.24
23.21	2274	0.24
23.16	2276	0.24
23.12	2279	0.25
23.08	2281	0.25
23.04	2283	0.25
22.99	2285	0.25
22.95	2287	0.25
22.91	2289	0.24
22.87	2291	0.24
22.82	2293	0.24
22.78	2295	0.24
22.74	2297	0.24
22.70	2300	0.24
22.65	2302	0.24
22.61	2304	0.24
22.57	2306	0.24
22.53	2308	0.25
22.48	2310	0.25
22.44	2312	0.25
22.40	2314	0.25
22.36	2316	0.25
22.31	2318	0.25
22.27	2321	0.25
22.23	2323	0.25
22.19	2325	0.25
22.14	2327	0.24
22.10	2329	0.25
22.06	2331	0.25
22.02	2333	0.25
21.97	2335	0.25
21.93	2337	0.25
21.89	2339	0.24
21.85	2342	0.25
21.80	2344	0.25
21.76	2346	0.25
21.72	2348	0.25
21.68	2350	0.24
21.63	2352	0.24
21.59	2354	0.24
21.55	2356	0.24
21.51	2358	0.24
21.46	2360	0.24
21.42	2363	0.25
21.38	2365	0.25
21.34	2367	0.25
21.29	2369	0.25
21.25	2371	0.25
21.21	2373	0.24
21.17	2375	0.25
21.12	2377	0.25
21.08	2379	0.25
21.04	2381	0.25
21.00	2384	0.25
20.95	2386	0.25
20.91	2388	0.25
20.87	2390	0.25
20.83	2392	0.25
20.78	2394	0.25
20.74	2396	0.25
20.70	2398	0.25
20.66	2400	0.25
20.61	2402	0.25
20.57	2405	0.25
20.53	2407	0.24
20.49	2409	0.24
20.44	2411	0.24
20.40	2413	0.25
20.36	2415	0.25
20.32	2417	0.25
20.27	2419	0.25
20.23	2421	0.24
20.19	2423	0.24
20.15	2426	0.24
20.10	2428	0.24
20.06	2430	0.24
20.02	2432	0.24
19.98	2434	0.24
19.94	2436	0.24
19.89	2438	0.24
19.85	2440	0.24
19.81	2442	0.24
19.77	2444	0.24
19.72	2447	0.24
19.68	2449	0.24
19.64	2451	0.24
19.60	2453	0.24
19.55	2455	0.24
19.51	2457	0.23
19.47	2459	0.23
19.43	2461	0.23
19.38	2463	0.23
19.34	2465	0.23
19.30	2468	0.23
19.26	2470	0.23
19.21	2472	0.23
19.17	2474	0.23
19.13	2476	0.23
19.09	2478	0.23
19.05	2480	0.23
19.00	2482	0.23
18.96	2484	0.22
18.92	2486	0.22
18.88	2489	0.22
18.83	2491	0.22
18.79	2493	0.22
18.75	2495	0.22
18.71	2497	0.22
18.67	2499	0.22
18.62	2501	0.22
18.58	2503	0.22
18.54	2505	0.22
18.50	2507	0.22
18.45	2510	0.22
18.41	2512	0.22
18.37	2514	0.22
18.33	2516	0.22
18.29	2518	0.22
18.25	2520	0.22
18.20	2522	0.21
18.16	2524	0.22
18.12	2526	0.22
18.08	2528	0.22
18.04	2531	0.22
18.00	2533	0.22
17.95	2535	0.21
17.91	2537	0.21
17.87	2539	0.21
17.83	2541	0.21
17.78	2543	0.21
17.74	2545	0.21
17.70	2547	0.21
17.66	2549	0.21
17.62	2552	0.21
17.57	2554	0.21
17.53	2556	0.21
17.49	2558	0.21
17.45	2560	0.21
17.41	2562	0.21
17.36	2564	0.21
17.32	2566	0.21
17.28	2568	0.21
17.24	2570	0.21
17.19	2573	0.21
17.15	2575	0.21
17.11	2577	0.21
17.07	2579	0.21
17.02	2581	0.21
16.98	2583	0.20
16.94	2585	0.20
16.90	2587	0.20
16.86	2589	0.20
16.81	2591	0.20
16.77	2594	0.20
16.73	2596	0.20
16.68	2598	0.20
16.64	2600	0.20
16.60	2602	0.20
16.56	2604	0.20
16.52	2606	0.20
16.47	2608	0.20
16.43	2610	0.20
16.39	2612	0.20
16.35	2615	0.20
16.30	2617	0.20
16.26	2619	0.20
16.22	2621	0.20
16.18	2623	0.20
16.14	2625	0.20
16.09	2627	0.20
16.05	2629	0.20
16.01	2631	0.19
15.97	2633	0.19
15.92	2636	0.19
15.88	2638	0.19
15.84	2640	0.19
15.80	2642	0.19
15.75	2644	0.19
15.71	2646	0.19
15.67	2648	0.19
15.63	2650	0.19
15.58	2652	0.19
15.54	2654	0.19
15.50	2657	0.19
15.46	2659	0.19
15.42	2661	0.19
15.37	2663	0.18
15.33	2665	0.18
15.29	2667	0.18
15.25	2669	0.18
15.20	2671	0.18
15.16	2673	0.18
15.12	2675	0.18
15.08	2678	0.18
15.03	2680	0.18
14.99	2682	0.18
14.95	2684	0.18
14.91	2686	0.18
14.87	2688	0.18
14.82	2690	0.18
14.78	2692	0.18
14.74	2694	0.18
14.70	2696	0.18
14.66	2699	0.18
14.61	2701	0.18
14.57	2703	0.18
14.53	2705	0.18
14.49	2707	0.18
14.44	2709	0.17
14.40	2711	0.17
14.36	2713	0.17
14.32	2715	0.17
14.27	2717	0.17
14.23	2720	0.17
14.19	2722	0.17
14.15	2724	0.17
14.11	2726	0.17
14.07	2728	0.17
14.02	2730	0.17
13.98	2732	0.17
13.94	2734	0.17
13.90	2736	0.17
13.85	2738	0.17
13.81	2741	0.16
13.77	2743	0.16
13.73	2745	0.16
13.68	2747	0.16
13.64	2749	0.16
13.60	2751	0.16
13.56	2753	0.16
13.52	2755	0.16
13.47	2757	0.16
13.43	2759	0.16
13.39	2762	0.16
13.35	2764	0.16
13.31	2766	0.16
13.26	2768	0.16
13.22	2770	0.16
13.18	2772	0.16
13.14	2774	0.16
13.10	2776	0.16
13.05	2778	0.16
13.01	2780	0.16
12.97	2783	0.16
12.93	2785	0.16
12.89	2787	0.16
12.84	2789	0.16
12.80	2791	0.16
12.76	2793	0.16
12.72	2795	0.16
12.67	2797	0.16
12.63	2799	0.16
12.59	2801	0.15
12.55	2804	0.15
12.51	2806	0.15
12.46	2808	0.15
12.42	2810	0.15
12.38	2812	0.15
12.34	2814	0.15
12.30	2816	0.15
12.25	2818	0.15
12.21	2820	0.15
12.17	2822	0.15
12.13	2825	0.15
12.09	2827	0.15
12.04	2829	0.15
12.00	2831	0.15
11.96	2833	0.15
11.92	2835	0.15
11.88	2837	0.15
11.83	2839	0.15
11.79	2841	0.15
11.75	2843	0.15
11.71	2846	0.15
11.67	2848	0.15
11.63	2850	0.15
11.58	2852	0.15
11.54	2854	0.15
11.50	2856	0.15
11.46	2858	0.15
11.42	2860	0.15
11.37	2862	0.15
11.33	2864	0.15
11.29	2867	0.15
11.25	2869	0.14
11.21	2871	0.14
11.17	2873	0.15
11.12	2875	0.15
11.08	2877	0.15
11.04	2879	0.15
11.00	2881	0.14
10.96	2883	0.14
10.91	2885	0.14
10.87	2888	0.14
10.83	2890	0.14
10.79	2892	0.15
10.75	2894	0.15
10.70	2896	0.15
10.66	2898	0.15
10.62	2900	0.14
10.58	2902	0.15
10.54	2904	0.15
10.50	2906	0.15
10.45	2909	0.15
10.41	2911	0.15
10.37	2913	0.15
10.33	2915	0.15
10.29	2917	0.15
10.24	2919	0.15
10.20	2921	0.15
10.16	2923	0.15
10.12	2925	0.15
10.08	2927	0.15
10.04	2930	0.15
10.00	2932	0.15
9.96	2934	0.15
9.92	2936	0.15
9.88	2938	0.15
9.83	2940	0.15
9.79	2942	0.15
9.75	2944	0.15
9.71	2946	0.15
9.67	2948	0.15
9.63	2951	0.15
9.59	2953	0.15
9.55	2955	0.15
9.51	2957	0.15
9.47	2959	0.15
9.43	2961	0.15
9.38	2963	0.15
9.34	2965	0.15
9.30	2967	0.15
9.26	2969	0.15
9.22	2972	0.15
9.18	2974	0.15
9.14	2976	0.15
9.10	2978	0.15
9.06	2980	0.15
9.02	2982	0.15
8.98	2984	0.15
8.94	2986	0.15
8.90	2988	0.15
8.86	2990	0.15
8.82	2993	0.15
8.78	2995	0.15
8.74	2997	0.15
8.70	2999	0.15
8.68	3000	0.15